,X,subject,trialN,subj_idx,response,rt,task,relativeValue,totalValue,memSlideScore,memChoiceScore,Left_sum,Right_sum,absRelativeValue,accuracy,arr_L,arr_R,N_L,N_R,L-R,|L-R|,trial_total,order,nValDiff,task2,value_type
0,0,hwrblsy3h,1,27,1,0.6913,experiment_FR,1,59,4,0.7,30,29,1,1,"[7, 7, 3, 7, 3, 3]","[3, 8, 2, 7, 6, 3]",2,5,-3,3,1,FR_VB,3,Accuracy-Based Reward,Middle-Value
1,1,hwrblsy3h,2,27,1,1.0196,experiment_FR,3,63,4,0.7,33,30,3,1,"[4, 4, 7, 2, 8, 8]","[4, 6, 6, 7, 1, 6]",4,4,0,0,2,FR_VB,0,Accuracy-Based Reward,High-Value
2,2,hwrblsy3h,3,27,1,1.1725,experiment_FR,8,40,4,0.7,24,16,8,1,"[6, 1, 7, 6, 1, 3]","[2, 2, 1, 5, 1, 5]",4,3,1,1,3,FR_VB,1,Accuracy-Based Reward,Low-Value
3,3,hwrblsy3h,4,27,1,0.6108,experiment_FR,9,51,4,0.7,30,21,9,1,"[2, 7, 1, 5, 8, 7]","[1, 4, 3, 4, 1, 8]",5,4,1,1,4,FR_VB,1,Accuracy-Based Reward,Middle-Value
4,4,hwrblsy3h,5,27,0,1.2807,experiment_FR,-4,48,4,0.7,22,26,4,1,"[3, 3, 3, 1, 5, 7]","[8, 3, 4, 4, 4, 3]",4,3,1,1,5,FR_VB,1,Accuracy-Based Reward,Low-Value
5,5,hwrblsy3h,6,27,1,1.303,experiment_FR,4,52,4,0.7,28,24,4,1,"[6, 3, 4, 4, 7, 4]","[4, 1, 5, 2, 6, 6]",4,5,-1,1,6,FR_VB,1,Accuracy-Based Reward,Middle-Value
6,6,hwrblsy3h,7,27,1,0.5683,experiment_FR,8,58,4,0.7,33,25,8,1,"[7, 8, 7, 5, 2, 4]","[3, 8, 6, 4, 1, 3]",5,5,0,0,7,FR_VB,0,Accuracy-Based Reward,Middle-Value
7,7,hwrblsy3h,8,27,0,0.6731,experiment_FR,-11,53,4,0.7,21,32,11,1,"[8, 3, 3, 2, 1, 4]","[5, 8, 2, 7, 6, 4]",5,6,-1,1,8,FR_VB,1,Accuracy-Based Reward,Middle-Value
8,8,hwrblsy3h,11,27,0,0.8325,experiment_FR,-13,57,4,0.7,22,35,13,1,"[3, 4, 1, 4, 8, 2]","[8, 7, 5, 1, 6, 8]",5,5,0,0,9,FR_VB,0,Accuracy-Based Reward,Middle-Value
9,9,hwrblsy3h,12,27,1,1.5793,experiment_FR,8,60,4,0.7,34,26,8,1,"[7, 5, 5, 4, 5, 8]","[1, 6, 6, 1, 4, 8]",4,4,0,0,10,FR_VB,0,Accuracy-Based Reward,High-Value
10,10,hwrblsy3h,14,27,1,1.0526,experiment_FR,4,48,4,0.7,26,22,4,1,"[6, 6, 1, 3, 8, 2]","[3, 5, 7, 2, 1, 4]",5,6,-1,1,11,FR_VB,1,Accuracy-Based Reward,Low-Value
11,11,hwrblsy3h,15,27,0,1.1134,experiment_FR,-3,49,4,0.7,23,26,3,1,"[6, 1, 5, 7, 1, 3]","[2, 7, 2, 2, 8, 5]",5,4,1,1,12,FR_VB,1,Accuracy-Based Reward,Middle-Value
12,12,hwrblsy3h,16,27,0,1.1685,experiment_FR,1,53,4,0.7,27,26,1,0,"[6, 2, 5, 2, 7, 5]","[7, 7, 1, 2, 7, 2]",4,3,1,1,13,FR_VB,1,Accuracy-Based Reward,Middle-Value
13,13,hwrblsy3h,18,27,0,0.7879,experiment_FR,-12,56,4,0.7,22,34,12,1,"[1, 6, 1, 3, 6, 5]","[8, 7, 4, 5, 7, 3]",4,5,-1,1,14,FR_VB,1,Accuracy-Based Reward,Middle-Value
14,14,hwrblsy3h,19,27,0,0.9961,experiment_FR,-2,54,4,0.7,26,28,2,1,"[1, 1, 7, 5, 8, 4]","[4, 2, 3, 7, 8, 4]",5,5,0,0,15,FR_VB,0,Accuracy-Based Reward,Middle-Value
15,15,hwrblsy3h,20,27,1,0.9028,experiment_FR,11,53,4,0.7,32,21,11,1,"[6, 6, 6, 3, 7, 4]","[6, 1, 1, 3, 8, 2]",4,5,-1,1,16,FR_VB,1,Accuracy-Based Reward,Middle-Value
16,16,hwrblsy3h,21,27,1,0.6989,experiment_FR,-3,45,4,0.7,21,24,3,0,"[2, 1, 8, 2, 5, 3]","[6, 1, 5, 4, 4, 4]",5,4,1,1,17,FR_VB,1,Accuracy-Based Reward,Low-Value
17,17,hwrblsy3h,22,27,1,0.9384,experiment_FR,1,55,4,0.7,28,27,1,1,"[3, 3, 4, 5, 7, 6]","[5, 4, 3, 6, 1, 8]",5,6,-1,1,18,FR_VB,1,Accuracy-Based Reward,Middle-Value
18,18,hwrblsy3h,23,27,1,0.9815,experiment_FR,7,45,4,0.7,26,19,7,1,"[3, 2, 3, 6, 4, 8]","[2, 5, 6, 1, 1, 4]",5,5,0,0,19,FR_VB,0,Accuracy-Based Reward,Low-Value
19,19,hwrblsy3h,24,27,1,0.7987,experiment_FR,-3,51,4,0.7,24,27,3,0,"[2, 2, 5, 7, 6, 2]","[4, 5, 6, 6, 5, 1]",4,4,0,0,20,FR_VB,0,Accuracy-Based Reward,Middle-Value
20,20,hwrblsy3h,25,27,1,1.0441,experiment_FR,4,44,4,0.7,24,20,4,1,"[2, 1, 7, 4, 8, 2]","[3, 1, 7, 7, 1, 1]",5,3,2,2,21,FR_VB,2,Accuracy-Based Reward,Low-Value
21,21,hwrblsy3h,26,27,1,1.1346,experiment_FR,-6,50,4,0.7,22,28,6,0,"[1, 4, 6, 1, 5, 5]","[7, 6, 4, 3, 1, 7]",4,5,-1,1,22,FR_VB,1,Accuracy-Based Reward,Middle-Value
22,22,hwrblsy3h,27,27,0,1.3232,experiment_FR,-7,51,4,0.7,22,29,7,1,"[5, 2, 2, 3, 6, 4]","[8, 3, 5, 5, 6, 2]",5,5,0,0,23,FR_VB,0,Accuracy-Based Reward,Middle-Value
23,23,hwrblsy3h,28,27,1,1.013,experiment_FR,0,54,4,0.7,27,27,0,1,"[4, 6, 4, 3, 8, 2]","[6, 3, 6, 3, 4, 5]",5,4,1,1,24,FR_VB,1,Accuracy-Based Reward,Middle-Value
24,24,hwrblsy3h,30,27,1,0.5842,experiment_FR,13,57,4,0.7,35,22,13,1,"[7, 7, 7, 8, 2, 4]","[1, 7, 2, 2, 2, 8]",4,4,0,0,25,FR_VB,0,Accuracy-Based Reward,Middle-Value
25,25,hwrblsy3h,31,27,0,0.5996,experiment_FR,-8,46,4,0.7,19,27,8,1,"[1, 3, 3, 6, 2, 4]","[6, 2, 4, 5, 8, 2]",5,5,0,0,26,FR_VB,0,Accuracy-Based Reward,Low-Value
26,26,hwrblsy3h,32,27,0,0.9628,experiment_FR,1,51,4,0.7,26,25,1,0,"[2, 6, 4, 2, 6, 6]","[6, 1, 7, 2, 8, 1]",3,5,-2,2,27,FR_VB,2,Accuracy-Based Reward,Middle-Value
27,27,hwrblsy3h,33,27,1,0.6172,experiment_FR,13,57,4,0.7,35,22,13,1,"[6, 7, 7, 8, 3, 4]","[2, 1, 4, 6, 6, 3]",5,5,0,0,28,FR_VB,0,Accuracy-Based Reward,Middle-Value
28,28,hwrblsy3h,34,27,1,0.7799,experiment_FR,-5,31,4,0.7,13,18,5,0,"[1, 1, 1, 2, 2, 6]","[2, 3, 3, 3, 3, 4]",3,3,0,0,29,FR_VB,0,Accuracy-Based Reward,Low-Value
29,29,hwrblsy3h,36,27,1,0.4872,experiment_FR,0,66,4,0.7,33,33,0,1,"[6, 1, 5, 8, 8, 5]","[4, 7, 3, 6, 7, 6]",4,4,0,0,30,FR_VB,0,Accuracy-Based Reward,High-Value
30,30,hwrblsy3h,37,27,1,0.6777,experiment_FR,17,55,4,0.7,36,19,17,1,"[8, 7, 8, 8, 1, 4]","[3, 6, 2, 1, 5, 2]",4,5,-1,1,31,FR_VB,1,Accuracy-Based Reward,Middle-Value
31,31,hwrblsy3h,38,27,0,0.8818,experiment_FR,-3,55,4,0.7,26,29,3,1,"[8, 2, 3, 3, 8, 2]","[4, 7, 8, 1, 4, 5]",3,5,-2,2,32,FR_VB,2,Accuracy-Based Reward,Middle-Value
32,32,hwrblsy3h,39,27,0,0.8623,experiment_FR,-6,56,4,0.7,25,31,6,1,"[5, 3, 2, 4, 4, 7]","[6, 7, 7, 4, 6, 1]",5,4,1,1,33,FR_VB,1,Accuracy-Based Reward,Middle-Value
33,33,hwrblsy3h,40,27,0,0.563,experiment_FR,-16,50,4,0.7,17,33,16,1,"[5, 1, 1, 4, 5, 1]","[4, 8, 8, 8, 3, 2]",3,4,-1,1,34,FR_VB,1,Accuracy-Based Reward,Middle-Value
34,34,hwrblsy3h,41,27,1,0.5177,experiment_FR,8,48,4,0.7,28,20,8,1,"[3, 7, 4, 6, 6, 2]","[3, 3, 7, 2, 1, 4]",5,5,0,0,35,FR_VB,0,Accuracy-Based Reward,Low-Value
35,35,hwrblsy3h,42,27,1,0.8218,experiment_FR,6,54,4,0.7,30,24,6,1,"[6, 3, 7, 3, 5, 6]","[4, 3, 6, 2, 7, 2]",4,5,-1,1,36,FR_VB,1,Accuracy-Based Reward,Middle-Value
36,36,hwrblsy3h,43,27,1,0.405,experiment_FR,22,60,4,0.7,41,19,22,1,"[6, 8, 8, 7, 6, 6]","[2, 4, 5, 5, 2, 1]",3,4,-1,1,37,FR_VB,1,Accuracy-Based Reward,High-Value
37,37,hwrblsy3h,44,27,0,0.5484,experiment_FR,-8,50,4,0.7,21,29,8,1,"[3, 4, 1, 4, 3, 6]","[1, 6, 4, 3, 8, 7]",4,6,-2,2,38,FR_VB,2,Accuracy-Based Reward,Middle-Value
38,38,hwrblsy3h,45,27,0,0.996,experiment_FR,-5,45,4,0.7,20,25,5,1,"[2, 3, 6, 1, 6, 2]","[2, 1, 8, 3, 4, 7]",4,6,-2,2,39,FR_VB,2,Accuracy-Based Reward,Low-Value
39,39,hwrblsy3h,46,27,1,0.5356,experiment_FR,13,53,4,0.7,33,20,13,1,"[2, 7, 7, 7, 4, 6]","[7, 2, 1, 2, 3, 5]",4,5,-1,1,40,FR_VB,1,Accuracy-Based Reward,Middle-Value
40,40,hwrblsy3h,47,27,1,0.9203,experiment_FR,2,52,4,0.7,27,25,2,1,"[1, 4, 4, 7, 4, 7]","[3, 2, 4, 2, 6, 8]",3,5,-2,2,41,FR_VB,2,Accuracy-Based Reward,Middle-Value
41,41,hwrblsy3h,48,27,1,0.5137,experiment_FR,15,51,4,0.7,33,18,15,1,"[8, 6, 2, 7, 5, 5]","[3, 1, 5, 1, 1, 7]",5,4,1,1,42,FR_VB,1,Accuracy-Based Reward,Middle-Value
42,42,hwrblsy3h,50,27,1,1.1337,experiment_FR,5,45,4,0.7,25,20,5,1,"[3, 3, 6, 3, 2, 8]","[5, 1, 4, 7, 1, 2]",4,5,-1,1,43,FR_VB,1,Accuracy-Based Reward,Low-Value
43,43,hwrblsy3h,51,27,1,0.7268,experiment_FR,6,40,4,0.7,23,17,6,1,"[4, 3, 6, 1, 8, 1]","[1, 5, 3, 2, 3, 3]",5,4,1,1,44,FR_VB,1,Accuracy-Based Reward,Low-Value
44,44,hwrblsy3h,52,27,1,0.6588,experiment_FR,5,53,4,0.7,29,24,5,1,"[4, 8, 1, 2, 7, 7]","[3, 4, 5, 8, 3, 1]",5,5,0,0,45,FR_VB,0,Accuracy-Based Reward,Middle-Value
45,45,hwrblsy3h,53,27,0,1.3836,experiment_FR,3,37,4,0.7,20,17,3,0,"[2, 6, 3, 3, 2, 4]","[7, 2, 2, 1, 4, 1]",4,4,0,0,46,FR_VB,0,Accuracy-Based Reward,Low-Value
46,46,hwrblsy3h,54,27,0,0.7164,experiment_FR,-8,62,4,0.7,27,35,8,1,"[4, 8, 2, 3, 5, 5]","[6, 7, 7, 8, 2, 5]",5,5,0,0,47,FR_VB,0,Accuracy-Based Reward,High-Value
47,47,hwrblsy3h,55,27,0,0.8592,experiment_FR,-2,40,4,0.7,19,21,2,1,"[4, 1, 2, 5, 3, 4]","[3, 1, 7, 6, 1, 3]",5,4,1,1,48,FR_VB,1,Accuracy-Based Reward,Low-Value
48,48,hwrblsy3h,56,27,0,0.7474,experiment_FR,-5,67,4,0.7,31,36,5,1,"[3, 4, 6, 3, 8, 7]","[8, 5, 8, 7, 6, 2]",5,5,0,0,49,FR_VB,0,Accuracy-Based Reward,High-Value
49,49,hwrblsy3h,57,27,1,1.2328,experiment_FR,3,59,4,0.7,31,28,3,1,"[4, 5, 1, 8, 8, 5]","[5, 7, 8, 1, 1, 6]",4,5,-1,1,50,FR_VB,1,Accuracy-Based Reward,Middle-Value
50,50,hwrblsy3h,58,27,0,1.0709,experiment_FR,-9,47,4,0.7,19,28,9,1,"[2, 2, 1, 5, 5, 4]","[3, 3, 8, 3, 5, 6]",4,4,0,0,51,FR_VB,0,Accuracy-Based Reward,Low-Value
51,51,hwrblsy3h,59,27,1,0.5152,experiment_FR,17,51,4,0.7,34,17,17,1,"[5, 2, 8, 4, 7, 8]","[4, 1, 1, 4, 1, 6]",5,3,2,2,52,FR_VB,2,Accuracy-Based Reward,Middle-Value
52,52,hwrblsy3h,60,27,0,0.5957,experiment_FR,-9,65,4,0.7,28,37,9,1,"[8, 5, 3, 3, 6, 3]","[8, 7, 8, 2, 7, 5]",4,4,0,0,53,FR_VB,0,Accuracy-Based Reward,High-Value
53,53,hwrblsy3h,61,27,0,0.9781,experiment_FR,-6,34,4,0.7,14,20,6,1,"[4, 1, 3, 3, 2, 1]","[1, 2, 8, 2, 3, 4]",4,5,-1,1,54,FR_VB,1,Accuracy-Based Reward,Low-Value
54,54,hwrblsy3h,62,27,0,0.6141,experiment_FR,0,50,4,0.7,25,25,0,1,"[7, 4, 1, 5, 6, 2]","[7, 3, 3, 6, 5, 1]",6,5,1,1,55,FR_VB,1,Accuracy-Based Reward,Middle-Value
55,55,hwrblsy3h,63,27,0,1.5442,experiment_FR,0,52,4,0.7,26,26,0,1,"[5, 7, 4, 7, 2, 1]","[1, 6, 4, 5, 3, 7]",5,6,-1,1,56,FR_VB,1,Accuracy-Based Reward,Middle-Value
56,56,hwrblsy3h,64,27,0,0.5937,experiment_FR,-13,45,4,0.7,16,29,13,1,"[4, 1, 3, 1, 6, 1]","[3, 7, 6, 6, 2, 5]",4,5,-1,1,57,FR_VB,1,Accuracy-Based Reward,Low-Value
57,57,hwrblsy3h,65,27,1,0.6112,experiment_FR,6,64,4,0.7,35,29,6,1,"[4, 4, 6, 8, 7, 6]","[3, 8, 6, 4, 4, 4]",4,4,0,0,58,FR_VB,0,Accuracy-Based Reward,High-Value
58,58,hwrblsy3h,66,27,1,0.8217,experiment_FR,3,65,4,0.7,34,31,3,1,"[8, 8, 2, 5, 7, 4]","[3, 7, 4, 4, 5, 8]",5,5,0,0,59,FR_VB,0,Accuracy-Based Reward,High-Value
59,59,hwrblsy3h,67,27,1,0.792,experiment_FR,3,49,4,0.7,26,23,3,1,"[3, 5, 3, 5, 3, 7]","[4, 4, 6, 3, 5, 1]",3,5,-2,2,60,FR_VB,2,Accuracy-Based Reward,Middle-Value
60,60,hwrblsy3h,68,27,1,0.9629,experiment_FR,-1,39,4,0.7,19,20,1,0,"[2, 1, 3, 2, 6, 5]","[2, 4, 1, 4, 4, 5]",5,4,1,1,61,FR_VB,1,Accuracy-Based Reward,Low-Value
61,61,hwrblsy3h,69,27,0,0.8821,experiment_FR,-6,52,4,0.7,23,29,6,1,"[4, 1, 8, 3, 6, 1]","[1, 7, 8, 4, 2, 7]",5,5,0,0,62,FR_VB,0,Accuracy-Based Reward,Middle-Value
62,62,hwrblsy3h,70,27,1,0.9222,experiment_FR,8,58,4,0.7,33,25,8,1,"[4, 7, 1, 8, 5, 8]","[3, 6, 2, 1, 7, 6]",5,5,0,0,63,FR_VB,0,Accuracy-Based Reward,Middle-Value
63,63,hwrblsy3h,71,27,0,0.5984,experiment_FR,-2,54,4,0.7,26,28,2,1,"[8, 5, 5, 3, 2, 3]","[5, 2, 3, 8, 7, 3]",4,5,-1,1,64,FR_VB,1,Accuracy-Based Reward,Middle-Value
64,64,hwrblsy3h,72,27,1,0.8405,experiment_FR,9,49,4,0.7,29,20,9,1,"[7, 7, 5, 3, 3, 4]","[6, 1, 1, 4, 6, 2]",4,4,0,0,65,FR_VB,0,Accuracy-Based Reward,Middle-Value
65,65,hwrblsy3h,73,27,0,0.751,experiment_FR,-4,52,4,0.7,24,28,4,1,"[4, 2, 4, 8, 3, 3]","[1, 5, 3, 3, 8, 8]",4,4,0,0,66,FR_VB,0,Accuracy-Based Reward,Middle-Value
66,66,hwrblsy3h,75,27,1,0.8952,experiment_FR,3,61,4,0.7,32,29,3,1,"[5, 7, 6, 8, 5, 1]","[5, 2, 7, 7, 4, 4]",5,4,1,1,67,FR_VB,1,Accuracy-Based Reward,High-Value
67,67,hwrblsy3h,76,27,0,1.0528,experiment_FR,-8,52,4,0.7,22,30,8,1,"[3, 3, 6, 5, 2, 3]","[3, 8, 2, 5, 5, 7]",4,5,-1,1,68,FR_VB,1,Accuracy-Based Reward,Middle-Value
68,68,hwrblsy3h,77,27,0,0.7325,experiment_FR,-7,47,4,0.7,20,27,7,1,"[3, 6, 2, 1, 5, 3]","[1, 8, 2, 8, 1, 7]",5,4,1,1,69,FR_VB,1,Accuracy-Based Reward,Low-Value
69,69,hwrblsy3h,78,27,1,0.9405,experiment_FR,7,47,4,0.7,27,20,7,1,"[1, 6, 6, 6, 2, 6]","[1, 2, 1, 4, 7, 5]",3,5,-2,2,70,FR_VB,2,Accuracy-Based Reward,Low-Value
70,70,hwrblsy3h,79,27,1,0.6774,experiment_FR,11,59,4,0.7,35,24,11,1,"[6, 8, 1, 5, 8, 7]","[6, 2, 5, 7, 2, 2]",5,4,1,1,71,FR_VB,1,Accuracy-Based Reward,Middle-Value
71,71,hwrblsy3h,81,27,0,1.13,experiment_FR,0,56,4,0.7,28,28,0,0,"[8, 6, 5, 5, 3, 1]","[8, 6, 1, 5, 5, 3]",5,5,0,0,72,FR_VB,0,Accuracy-Based Reward,Middle-Value
72,72,hwrblsy3h,82,27,1,0.7003,experiment_FR,7,61,4,0.7,34,27,7,1,"[6, 7, 5, 4, 8, 4]","[5, 4, 5, 3, 7, 3]",5,4,1,1,73,FR_VB,1,Accuracy-Based Reward,High-Value
73,73,hwrblsy3h,83,27,0,0.7264,experiment_FR,-9,75,4,0.7,33,42,9,1,"[4, 6, 8, 7, 1, 7]","[5, 7, 8, 7, 7, 8]",5,3,2,2,74,FR_VB,2,Accuracy-Based Reward,High-Value
74,74,hwrblsy3h,84,27,1,0.8995,experiment_FR,5,59,4,0.7,32,27,5,1,"[1, 8, 3, 5, 8, 7]","[2, 1, 8, 8, 5, 3]",5,5,0,0,75,FR_VB,0,Accuracy-Based Reward,Middle-Value
75,75,hwrblsy3h,85,27,1,1.0193,experiment_FR,6,56,4,0.7,31,25,6,1,"[6, 7, 3, 8, 5, 2]","[1, 2, 6, 4, 4, 8]",6,5,1,1,76,FR_VB,1,Accuracy-Based Reward,Middle-Value
76,76,hwrblsy3h,86,27,0,1.2386,experiment_FR,-14,40,4,0.7,13,27,14,1,"[4, 3, 1, 1, 1, 3]","[5, 5, 3, 4, 6, 4]",3,4,-1,1,77,FR_VB,1,Accuracy-Based Reward,Low-Value
77,77,hwrblsy3h,87,27,0,0.7533,experiment_FR,-7,43,4,0.7,18,25,7,1,"[5, 2, 4, 2, 3, 2]","[6, 8, 4, 3, 1, 3]",4,5,-1,1,78,FR_VB,1,Accuracy-Based Reward,Low-Value
78,78,hwrblsy3h,88,27,1,1.541,experiment_FR,5,65,4,0.7,35,30,5,1,"[3, 8, 8, 7, 5, 4]","[1, 6, 8, 2, 6, 7]",5,5,0,0,79,FR_VB,0,Accuracy-Based Reward,High-Value
79,79,hwrblsy3h,89,27,1,0.8746,experiment_FR,3,51,4,0.7,27,24,3,1,"[5, 5, 5, 3, 7, 2]","[3, 2, 8, 6, 2, 3]",4,4,0,0,80,FR_VB,0,Accuracy-Based Reward,Middle-Value
80,80,hwrblsy3h,90,27,0,1.0555,experiment_FR,1,53,4,0.7,27,26,1,0,"[4, 5, 5, 6, 3, 4]","[4, 7, 1, 5, 3, 6]",4,6,-2,2,81,FR_VB,2,Accuracy-Based Reward,Middle-Value
81,81,hwrblsy3h,91,27,1,0.4979,experiment_FR,6,52,4,0.7,29,23,6,1,"[6, 6, 2, 1, 6, 8]","[4, 1, 4, 4, 4, 6]",4,3,1,1,82,FR_VB,1,Accuracy-Based Reward,Middle-Value
82,82,hwrblsy3h,92,27,1,0.6988,experiment_FR,3,55,4,0.7,29,26,3,1,"[3, 2, 6, 6, 5, 7]","[3, 5, 1, 5, 4, 8]",5,5,0,0,83,FR_VB,0,Accuracy-Based Reward,Middle-Value
83,83,hwrblsy3h,93,27,0,0.7817,experiment_FR,0,48,4,0.7,24,24,0,0,"[3, 3, 6, 3, 1, 8]","[4, 8, 2, 5, 4, 1]",4,5,-1,1,84,FR_VB,1,Accuracy-Based Reward,Low-Value
84,84,hwrblsy3h,94,27,0,0.9325,experiment_FR,-5,39,4,0.7,17,22,5,1,"[1, 3, 6, 3, 2, 2]","[7, 4, 4, 3, 2, 2]",4,4,0,0,85,FR_VB,0,Accuracy-Based Reward,Low-Value
85,85,hwrblsy3h,95,27,0,0.9702,experiment_FR,-9,53,4,0.7,22,31,9,1,"[1, 4, 5, 2, 2, 8]","[7, 5, 4, 3, 4, 8]",5,5,0,0,86,FR_VB,0,Accuracy-Based Reward,Middle-Value
86,86,hwrblsy3h,96,27,1,0.8022,experiment_FR,0,50,4,0.7,25,25,0,0,"[4, 6, 1, 8, 4, 2]","[5, 6, 4, 2, 2, 6]",5,4,1,1,87,FR_VB,1,Accuracy-Based Reward,Middle-Value
87,87,hwrblsy3h,97,27,0,0.7695,experiment_FR,-6,56,4,0.7,25,31,6,1,"[6, 8, 3, 4, 3, 1]","[8, 8, 8, 2, 3, 2]",5,3,2,2,88,FR_VB,2,Accuracy-Based Reward,Middle-Value
88,88,hwrblsy3h,98,27,0,0.6357,experiment_FR,-4,58,4,0.7,27,31,4,1,"[8, 5, 1, 1, 4, 8]","[2, 7, 8, 1, 8, 5]",4,5,-1,1,89,FR_VB,1,Accuracy-Based Reward,Middle-Value
89,89,hwrblsy3h,99,27,1,0.6603,experiment_FR,3,49,4,0.7,26,23,3,1,"[2, 1, 3, 7, 6, 7]","[8, 3, 1, 4, 3, 4]",5,4,1,1,90,FR_VB,1,Accuracy-Based Reward,Middle-Value
90,90,hwrblsy3h,100,27,1,1.0923,experiment_FR,-3,47,4,0.7,22,25,3,0,"[8, 1, 8, 2, 2, 1]","[4, 8, 3, 4, 3, 3]",3,3,0,0,91,FR_VB,0,Accuracy-Based Reward,Low-Value
91,91,hwrblsy3h,101,27,1,0.4788,experiment_FR,-1,71,4,0.7,35,36,1,0,"[8, 5, 6, 8, 2, 6]","[6, 4, 7, 8, 6, 5]",4,5,-1,1,92,FR_VB,1,Accuracy-Based Reward,High-Value
92,92,hwrblsy3h,102,27,0,0.7246,experiment_FR,-7,61,4,0.7,27,34,7,1,"[2, 3, 8, 7, 6, 1]","[6, 8, 7, 6, 6, 1]",6,4,2,2,93,FR_VB,2,Accuracy-Based Reward,High-Value
93,93,hwrblsy3h,103,27,0,0.77,experiment_FR,-16,62,4,0.7,23,39,16,1,"[4, 1, 8, 3, 5, 2]","[6, 8, 3, 8, 8, 6]",6,3,3,3,94,FR_VB,3,Accuracy-Based Reward,High-Value
94,94,hwrblsy3h,104,27,1,0.9694,experiment_FR,4,62,4,0.7,33,29,4,1,"[2, 5, 7, 5, 7, 7]","[4, 2, 7, 7, 4, 5]",3,4,-1,1,95,FR_VB,1,Accuracy-Based Reward,High-Value
95,95,hwrblsy3h,105,27,1,1.0361,experiment_FR,4,42,4,0.7,23,19,4,1,"[2, 1, 4, 2, 8, 6]","[3, 3, 3, 1, 7, 2]",5,4,1,1,96,FR_VB,1,Accuracy-Based Reward,Low-Value
96,96,hwrblsy3h,106,27,1,0.7861,experiment_FR,8,56,4,0.7,32,24,8,1,"[5, 4, 8, 8, 3, 4]","[6, 2, 7, 1, 2, 6]",4,4,0,0,97,FR_VB,0,Accuracy-Based Reward,Middle-Value
97,97,hwrblsy3h,107,27,0,0.8033,experiment_FR,-5,65,4,0.7,30,35,5,1,"[1, 3, 5, 8, 7, 6]","[6, 3, 8, 3, 7, 8]",6,4,2,2,98,FR_VB,2,Accuracy-Based Reward,High-Value
98,98,hwrblsy3h,108,27,0,0.8589,experiment_FR,-4,50,4,0.7,23,27,4,1,"[4, 4, 1, 7, 1, 6]","[5, 4, 6, 2, 2, 8]",4,5,-1,1,99,FR_VB,1,Accuracy-Based Reward,Middle-Value
99,99,hwrblsy3h,109,27,0,0.7591,experiment_FR,-15,39,4,0.7,12,27,15,1,"[1, 1, 2, 3, 3, 2]","[6, 5, 5, 3, 7, 1]",3,5,-2,2,100,FR_VB,2,Accuracy-Based Reward,Low-Value
100,100,hwrblsy3h,110,27,0,0.7531,experiment_FR,-5,61,4,0.7,28,33,5,1,"[3, 5, 7, 2, 3, 8]","[5, 4, 7, 8, 7, 2]",5,5,0,0,101,FR_VB,0,Accuracy-Based Reward,High-Value
101,101,hwrblsy3h,111,27,0,0.7755,experiment_FR,-7,51,4,0.7,22,29,7,1,"[7, 3, 1, 4, 5, 2]","[1, 5, 7, 6, 5, 5]",6,4,2,2,102,FR_VB,2,Accuracy-Based Reward,Middle-Value
102,102,hwrblsy3h,112,27,1,0.7242,experiment_FR,10,56,4,0.7,33,23,10,1,"[1, 8, 6, 7, 6, 5]","[2, 1, 4, 8, 2, 6]",5,5,0,0,103,FR_VB,0,Accuracy-Based Reward,Middle-Value
103,103,hwrblsy3h,113,27,0,0.6899,experiment_FR,-8,62,4,0.7,27,35,8,1,"[4, 4, 7, 2, 6, 4]","[8, 6, 3, 7, 8, 3]",4,4,0,0,104,FR_VB,0,Accuracy-Based Reward,High-Value
104,104,hwrblsy3h,114,27,0,0.7485,experiment_FR,-17,61,4,0.7,22,39,17,1,"[2, 2, 3, 2, 7, 6]","[8, 6, 7, 3, 7, 8]",4,4,0,0,105,FR_VB,0,Accuracy-Based Reward,High-Value
105,105,hwrblsy3h,115,27,1,1.2373,experiment_FR,1,57,4,0.7,29,28,1,1,"[5, 3, 7, 4, 7, 3]","[6, 6, 6, 2, 6, 2]",4,2,2,2,106,FR_VB,2,Accuracy-Based Reward,Middle-Value
106,106,hwrblsy3h,116,27,1,0.5537,experiment_FR,3,63,4,0.7,33,30,3,1,"[5, 6, 7, 4, 3, 8]","[3, 6, 8, 1, 5, 7]",6,6,0,0,107,FR_VB,0,Accuracy-Based Reward,High-Value
107,107,hwrblsy3h,117,27,1,0.6267,experiment_FR,13,49,4,0.7,31,18,13,1,"[3, 5, 8, 6, 5, 4]","[4, 1, 1, 8, 1, 3]",5,4,1,1,108,FR_VB,1,Accuracy-Based Reward,Middle-Value
108,108,hwrblsy3h,118,27,1,0.662,experiment_FR,2,54,4,0.7,28,26,2,1,"[5, 4, 6, 1, 8, 4]","[3, 7, 6, 2, 3, 5]",5,5,0,0,109,FR_VB,0,Accuracy-Based Reward,Middle-Value
109,109,hwrblsy3h,119,27,0,0.6991,experiment_FR,-13,71,4,0.7,29,42,13,1,"[5, 3, 5, 4, 4, 8]","[6, 6, 8, 8, 6, 8]",4,2,2,2,110,FR_VB,2,Accuracy-Based Reward,High-Value
110,110,hwrblsy3h,120,27,1,0.908,experiment_FR,8,58,4,0.7,33,25,8,1,"[6, 6, 5, 6, 2, 8]","[6, 7, 2, 1, 8, 1]",4,5,-1,1,111,FR_VB,1,Accuracy-Based Reward,Middle-Value
111,111,hwrblsy3h,121,27,0,1.0748,experiment_FR,-4,56,4,0.7,26,30,4,1,"[1, 1, 6, 7, 8, 3]","[5, 1, 3, 7, 6, 8]",5,6,-1,1,112,FR_VB,1,Accuracy-Based Reward,Middle-Value
112,112,hwrblsy3h,122,27,1,1.4735,experiment_FR,5,55,4,0.7,30,25,5,1,"[7, 2, 6, 6, 4, 5]","[5, 4, 2, 3, 7, 4]",5,5,0,0,113,FR_VB,0,Accuracy-Based Reward,Middle-Value
113,113,hwrblsy3h,123,27,1,0.9833,experiment_FR,2,54,4,0.7,28,26,2,1,"[3, 6, 2, 7, 5, 5]","[3, 6, 7, 2, 7, 1]",5,5,0,0,114,FR_VB,0,Accuracy-Based Reward,Middle-Value
114,114,hwrblsy3h,124,27,1,0.78,experiment_FR,11,57,4,0.7,34,23,11,1,"[6, 6, 7, 8, 2, 5]","[3, 5, 6, 1, 2, 6]",5,5,0,0,115,FR_VB,0,Accuracy-Based Reward,Middle-Value
115,115,hwrblsy3h,125,27,1,0.6022,experiment_FR,19,69,4,0.7,44,25,19,1,"[8, 8, 6, 8, 8, 6]","[2, 8, 5, 4, 3, 3]",2,5,-3,3,116,FR_VB,3,Accuracy-Based Reward,High-Value
116,116,hwrblsy3h,126,27,1,0.712,experiment_FR,8,46,4,0.7,27,19,8,1,"[5, 4, 2, 8, 6, 2]","[5, 1, 7, 2, 2, 2]",5,4,1,1,117,FR_VB,1,Accuracy-Based Reward,Low-Value
117,117,hwrblsy3h,127,27,1,0.7068,experiment_FR,8,46,4,0.7,27,19,8,1,"[6, 6, 3, 1, 3, 8]","[6, 3, 1, 1, 4, 4]",4,4,0,0,118,FR_VB,0,Accuracy-Based Reward,Low-Value
118,118,hwrblsy3h,128,27,1,0.4313,experiment_FR,5,55,4,0.7,30,25,5,1,"[3, 5, 8, 4, 8, 2]","[8, 3, 2, 5, 4, 3]",5,5,0,0,119,FR_VB,0,Accuracy-Based Reward,Middle-Value
119,119,hwrblsy3h,129,27,1,0.7881,experiment_FR,-1,43,4,0.7,21,22,1,0,"[7, 1, 4, 1, 7, 1]","[1, 7, 5, 3, 5, 1]",3,4,-1,1,120,FR_VB,1,Accuracy-Based Reward,Low-Value
120,120,hwrblsy3h,130,27,0,0.6581,experiment_FR,-7,57,4,0.7,25,32,7,1,"[1, 6, 3, 6, 3, 6]","[2, 8, 5, 1, 8, 8]",3,4,-1,1,121,FR_VB,1,Accuracy-Based Reward,Middle-Value
121,121,hwrblsy3h,131,27,0,0.6666,experiment_FR,-10,56,4,0.7,23,33,10,1,"[3, 8, 1, 4, 5, 2]","[3, 8, 3, 7, 6, 6]",6,4,2,2,122,FR_VB,2,Accuracy-Based Reward,Middle-Value
122,122,hwrblsy3h,132,27,0,0.7783,experiment_FR,-8,68,4,0.7,30,38,8,1,"[3, 6, 7, 2, 8, 4]","[7, 4, 8, 8, 5, 6]",6,5,1,1,123,FR_VB,1,Accuracy-Based Reward,High-Value
123,123,hwrblsy3h,133,27,1,0.9506,experiment_FR,16,50,4,0.7,33,17,16,1,"[4, 5, 4, 7, 5, 8]","[1, 3, 3, 2, 6, 2]",4,4,0,0,124,FR_VB,0,Accuracy-Based Reward,Middle-Value
124,124,hwrblsy3h,134,27,1,1.0609,experiment_FR,-6,68,4,0.7,31,37,6,0,"[1, 6, 6, 8, 2, 8]","[6, 4, 6, 8, 6, 7]",4,4,0,0,125,FR_VB,0,Accuracy-Based Reward,High-Value
125,125,hwrblsy3h,135,27,1,0.988,experiment_FR,6,60,4,0.7,33,27,6,1,"[6, 3, 5, 5, 7, 7]","[8, 3, 8, 4, 3, 1]",4,4,0,0,126,FR_VB,0,Accuracy-Based Reward,High-Value
126,126,hwrblsy3h,136,27,1,0.8344,experiment_FR,7,69,4,0.7,38,31,7,1,"[6, 3, 7, 8, 7, 7]","[7, 4, 1, 5, 8, 6]",4,6,-2,2,127,FR_VB,2,Accuracy-Based Reward,High-Value
127,127,hwrblsy3h,137,27,0,0.8705,experiment_FR,-1,53,4,0.7,26,27,1,1,"[5, 3, 4, 2, 4, 8]","[3, 6, 5, 7, 2, 4]",5,6,-1,1,128,FR_VB,1,Accuracy-Based Reward,Middle-Value
128,128,hwrblsy3h,138,27,0,0.7639,experiment_FR,-1,67,4,0.7,33,34,1,1,"[5, 5, 7, 3, 8, 5]","[7, 7, 5, 2, 7, 6]",4,4,0,0,129,FR_VB,0,Accuracy-Based Reward,High-Value
129,129,hwrblsy3h,139,27,0,0.7834,experiment_FR,-6,54,4,0.7,24,30,6,1,"[6, 4, 2, 1, 5, 6]","[2, 4, 5, 4, 8, 7]",5,5,0,0,130,FR_VB,0,Accuracy-Based Reward,Middle-Value
130,130,hwrblsy3h,140,27,1,0.7327,experiment_FR,4,60,4,0.7,32,28,4,1,"[8, 8, 4, 2, 8, 2]","[4, 3, 4, 8, 2, 7]",3,5,-2,2,131,FR_VB,2,Accuracy-Based Reward,High-Value
131,131,hwrblsy3h,141,27,1,1.1795,experiment_FR,6,56,4,0.7,31,25,6,1,"[4, 7, 6, 4, 3, 7]","[3, 3, 5, 4, 7, 3]",4,4,0,0,132,FR_VB,0,Accuracy-Based Reward,Middle-Value
132,132,hwrblsy3h,142,27,0,1.1581,experiment_FR,-7,43,4,0.7,18,25,7,1,"[1, 1, 8, 1, 1, 6]","[1, 8, 4, 3, 4, 5]",3,5,-2,2,133,FR_VB,2,Accuracy-Based Reward,Low-Value
133,133,hwrblsy3h,143,27,1,1.239,experiment_FR,-2,56,4,0.7,27,29,2,0,"[7, 4, 8, 1, 2, 5]","[5, 7, 6, 4, 6, 1]",6,5,1,1,134,FR_VB,1,Accuracy-Based Reward,Middle-Value
134,134,hwrblsy3h,144,27,1,0.8316,experiment_FR,12,44,4,0.7,28,16,12,1,"[6, 5, 7, 4, 3, 3]","[2, 2, 1, 4, 2, 5]",5,4,1,1,135,FR_VB,1,Accuracy-Based Reward,Low-Value
135,135,hwrblsy3h,145,27,1,0.6411,experiment_FR,5,53,4,0.7,29,24,5,1,"[2, 1, 7, 5, 6, 8]","[4, 2, 5, 3, 8, 2]",6,5,1,1,136,FR_VB,1,Accuracy-Based Reward,Middle-Value
136,136,hwrblsy3h,146,27,1,0.5634,experiment_FR,-10,56,4,0.7,23,33,10,0,"[5, 2, 4, 8, 1, 3]","[5, 4, 5, 7, 4, 8]",6,4,2,2,137,FR_VB,2,Accuracy-Based Reward,Middle-Value
137,137,hwrblsy3h,150,27,1,1.0666,experiment_FR,13,55,4,0.7,34,21,13,1,"[5, 8, 7, 6, 6, 2]","[5, 1, 5, 4, 3, 3]",5,4,1,1,138,FR_VB,1,Accuracy-Based Reward,Middle-Value
138,275,ua60hkvff,1,48,1,1.0005,experiment_VB,2,54,3.6,0.4,28,26,2,1,"[3, 8, 3, 2, 7, 5]","[2, 5, 3, 5, 3, 8]",5,4,1,1,1,VB_FR,1,Value-Based Reward,Middle-Value
139,276,ua60hkvff,2,48,0,1.329,experiment_VB,6,54,3.6,0.4,30,24,6,0,"[8, 4, 4, 7, 2, 5]","[2, 6, 6, 5, 1, 4]",5,5,0,0,2,VB_FR,0,Value-Based Reward,Middle-Value
140,277,ua60hkvff,3,48,0,1.2034,experiment_VB,-8,40,3.6,0.4,16,24,8,1,"[5, 1, 5, 1, 2, 2]","[1, 6, 3, 1, 6, 7]",3,4,-1,1,3,VB_FR,1,Value-Based Reward,Low-Value
141,278,ua60hkvff,5,48,1,1.0258,experiment_VB,5,53,3.6,0.4,29,24,5,1,"[8, 7, 1, 5, 6, 2]","[2, 2, 3, 5, 4, 8]",6,5,1,1,4,VB_FR,1,Value-Based Reward,Middle-Value
142,279,ua60hkvff,6,48,1,0.9065,experiment_VB,11,59,3.6,0.4,35,24,11,1,"[5, 6, 1, 7, 8, 8]","[2, 7, 2, 5, 6, 2]",5,4,1,1,5,VB_FR,1,Value-Based Reward,Middle-Value
143,280,ua60hkvff,7,48,1,0.8319,experiment_VB,8,50,3.6,0.4,29,21,8,1,"[7, 6, 8, 3, 1, 4]","[4, 4, 1, 3, 6, 3]",6,4,2,2,6,VB_FR,2,Value-Based Reward,Middle-Value
144,281,ua60hkvff,8,48,1,1.148,experiment_VB,13,57,3.6,0.4,35,22,13,1,"[4, 7, 7, 8, 2, 7]","[2, 1, 2, 7, 8, 2]",4,4,0,0,7,VB_FR,0,Value-Based Reward,Middle-Value
145,282,ua60hkvff,11,48,0,1.4786,experiment_VB,-3,61,3.6,0.4,29,32,3,1,"[5, 2, 4, 7, 7, 4]","[5, 5, 8, 7, 1, 6]",4,5,-1,1,8,VB_FR,1,Value-Based Reward,High-Value
146,283,ua60hkvff,12,48,0,0.983,experiment_VB,5,65,3.6,0.4,35,30,5,0,"[7, 3, 8, 8, 3, 6]","[7, 8, 6, 3, 1, 5]",4,6,-2,2,9,VB_FR,2,Value-Based Reward,High-Value
147,284,ua60hkvff,13,48,1,1.3864,experiment_VB,6,54,3.6,0.4,30,24,6,1,"[6, 6, 3, 7, 3, 5]","[2, 7, 6, 4, 3, 2]",4,5,-1,1,10,VB_FR,1,Value-Based Reward,Middle-Value
148,285,ua60hkvff,14,48,1,1.8117,experiment_VB,3,51,3.6,0.4,27,24,3,1,"[7, 3, 5, 5, 2, 5]","[8, 2, 6, 3, 3, 2]",4,4,0,0,11,VB_FR,0,Value-Based Reward,Middle-Value
149,286,ua60hkvff,15,48,0,2.0578,experiment_VB,-6,64,3.6,0.4,29,35,6,1,"[3, 4, 6, 4, 8, 4]","[7, 6, 4, 4, 6, 8]",4,4,0,0,12,VB_FR,0,Value-Based Reward,High-Value
150,287,ua60hkvff,16,48,0,1.7676,experiment_VB,-6,56,3.6,0.4,25,31,6,1,"[8, 1, 6, 4, 3, 3]","[2, 8, 3, 2, 8, 8]",5,3,2,2,13,VB_FR,2,Value-Based Reward,Middle-Value
151,288,ua60hkvff,17,48,0,1.3097,experiment_VB,-3,51,3.6,0.4,24,27,3,1,"[2, 2, 6, 2, 7, 5]","[4, 6, 1, 6, 5, 5]",4,4,0,0,14,VB_FR,0,Value-Based Reward,Middle-Value
152,289,ua60hkvff,18,48,0,0.8486,experiment_VB,-11,57,3.6,0.4,23,34,11,1,"[2, 6, 5, 3, 1, 6]","[2, 7, 8, 5, 6, 6]",5,5,0,0,15,VB_FR,0,Value-Based Reward,Middle-Value
153,290,ua60hkvff,20,48,1,0.7245,experiment_VB,22,60,3.6,0.4,41,19,22,1,"[6, 8, 8, 6, 6, 7]","[1, 5, 2, 5, 4, 2]",3,4,-1,1,16,VB_FR,1,Value-Based Reward,High-Value
154,291,ua60hkvff,21,48,1,1.2417,experiment_VB,3,55,3.6,0.4,29,26,3,1,"[6, 5, 7, 3, 6, 2]","[5, 5, 8, 1, 4, 3]",5,5,0,0,17,VB_FR,0,Value-Based Reward,Middle-Value
155,292,ua60hkvff,22,48,0,1.5504,experiment_VB,-1,53,3.6,0.4,26,27,1,1,"[1, 6, 5, 4, 3, 7]","[6, 4, 4, 5, 3, 5]",6,4,2,2,18,VB_FR,2,Value-Based Reward,Middle-Value
156,293,ua60hkvff,23,48,1,1.0301,experiment_VB,13,55,3.6,0.4,34,21,13,1,"[7, 6, 8, 5, 6, 2]","[1, 4, 3, 5, 3, 5]",5,4,1,1,19,VB_FR,1,Value-Based Reward,Middle-Value
157,294,ua60hkvff,24,48,1,1.1828,experiment_VB,1,51,3.6,0.4,26,25,1,1,"[4, 6, 2, 6, 2, 6]","[6, 2, 7, 8, 1, 1]",3,5,-2,2,20,VB_FR,2,Value-Based Reward,Middle-Value
158,295,ua60hkvff,25,48,0,0.5474,experiment_VB,-6,52,3.6,0.4,23,29,6,1,"[4, 4, 4, 1, 4, 6]","[8, 6, 6, 6, 1, 2]",3,4,-1,1,21,VB_FR,1,Value-Based Reward,Middle-Value
159,296,ua60hkvff,26,48,1,0.8937,experiment_VB,3,49,3.6,0.4,26,23,3,1,"[7, 3, 7, 6, 2, 1]","[3, 4, 1, 8, 4, 3]",5,4,1,1,22,VB_FR,1,Value-Based Reward,Middle-Value
160,297,ua60hkvff,27,48,1,0.7573,experiment_VB,-1,33,3.6,0.4,16,17,1,0,"[1, 2, 1, 6, 5, 1]","[6, 4, 3, 2, 1, 1]",4,5,-1,1,23,VB_FR,1,Value-Based Reward,Low-Value
161,298,ua60hkvff,28,48,1,0.6754,experiment_VB,0,52,3.6,0.4,26,26,0,0,"[7, 5, 4, 1, 2, 7]","[1, 6, 3, 7, 4, 5]",5,6,-1,1,24,VB_FR,1,Value-Based Reward,Middle-Value
162,299,ua60hkvff,29,48,1,1.0088,experiment_VB,-3,59,3.6,0.4,28,31,3,0,"[7, 1, 5, 1, 6, 8]","[8, 5, 8, 1, 4, 5]",5,4,1,1,25,VB_FR,1,Value-Based Reward,Middle-Value
163,300,ua60hkvff,30,48,1,1.1529,experiment_VB,6,40,3.6,0.4,23,17,6,1,"[1, 8, 4, 3, 6, 1]","[3, 3, 5, 2, 3, 1]",5,4,1,1,26,VB_FR,1,Value-Based Reward,Low-Value
164,301,ua60hkvff,31,48,1,0.6597,experiment_VB,7,51,3.6,0.4,29,22,7,1,"[3, 8, 6, 2, 5, 5]","[2, 3, 5, 4, 6, 2]",5,5,0,0,27,VB_FR,0,Value-Based Reward,Middle-Value
165,302,ua60hkvff,32,48,1,0.8351,experiment_VB,1,55,3.6,0.4,28,27,1,1,"[6, 3, 3, 7, 5, 4]","[5, 1, 4, 3, 6, 8]",5,6,-1,1,28,VB_FR,1,Value-Based Reward,Middle-Value
166,303,ua60hkvff,33,48,1,0.6834,experiment_VB,8,48,3.6,0.4,28,20,8,1,"[4, 7, 6, 2, 3, 6]","[4, 3, 1, 3, 2, 7]",5,5,0,0,29,VB_FR,0,Value-Based Reward,Middle-Value
167,304,ua60hkvff,34,48,1,0.8764,experiment_VB,14,40,3.6,0.4,27,13,14,1,"[6, 4, 5, 3, 5, 4]","[3, 1, 1, 1, 4, 3]",4,3,1,1,30,VB_FR,1,Value-Based Reward,Low-Value
168,305,ua60hkvff,35,48,1,1.708,experiment_VB,0,54,3.6,0.4,27,27,0,1,"[8, 4, 3, 4, 2, 6]","[3, 6, 3, 5, 4, 6]",5,4,1,1,31,VB_FR,1,Value-Based Reward,Middle-Value
169,306,ua60hkvff,36,48,0,1.3242,experiment_VB,-7,47,3.6,0.4,20,27,7,1,"[5, 1, 3, 3, 6, 2]","[7, 8, 1, 1, 2, 8]",5,4,1,1,32,VB_FR,1,Value-Based Reward,Low-Value
170,307,ua60hkvff,37,48,0,1.2938,experiment_VB,-8,56,3.6,0.4,24,32,8,1,"[1, 7, 6, 2, 6, 2]","[4, 3, 5, 8, 4, 8]",4,4,0,0,33,VB_FR,0,Value-Based Reward,Middle-Value
171,308,ua60hkvff,38,48,1,1.0662,experiment_VB,-4,48,3.6,0.4,22,26,4,0,"[3, 5, 3, 7, 3, 1]","[4, 3, 4, 4, 3, 8]",4,3,1,1,34,VB_FR,1,Value-Based Reward,Middle-Value
172,309,ua60hkvff,39,48,0,0.8876,experiment_VB,-8,58,3.6,0.4,25,33,8,1,"[6, 1, 1, 7, 8, 2]","[6, 6, 6, 5, 2, 8]",5,4,1,1,35,VB_FR,1,Value-Based Reward,Middle-Value
173,310,ua60hkvff,40,48,1,1.1987,experiment_VB,3,49,3.6,0.4,26,23,3,1,"[4, 7, 5, 6, 3, 1]","[5, 1, 6, 1, 2, 8]",6,5,1,1,36,VB_FR,1,Value-Based Reward,Middle-Value
174,311,ua60hkvff,41,48,1,0.9729,experiment_VB,5,65,3.6,0.4,35,30,5,1,"[8, 5, 3, 4, 8, 7]","[6, 6, 8, 7, 1, 2]",5,5,0,0,37,VB_FR,0,Value-Based Reward,High-Value
175,312,ua60hkvff,42,48,0,1.7103,experiment_VB,3,63,3.6,0.4,33,30,3,0,"[7, 4, 8, 4, 2, 8]","[6, 4, 7, 1, 6, 6]",4,4,0,0,38,VB_FR,0,Value-Based Reward,High-Value
176,313,ua60hkvff,43,48,1,0.941,experiment_VB,10,56,3.6,0.4,33,23,10,1,"[5, 4, 7, 4, 8, 5]","[4, 2, 5, 1, 8, 3]",4,6,-2,2,39,VB_FR,2,Value-Based Reward,Middle-Value
177,314,ua60hkvff,44,48,1,1.2973,experiment_VB,-4,48,3.6,0.4,22,26,4,0,"[3, 7, 2, 4, 5, 1]","[6, 8, 6, 3, 1, 2]",6,5,1,1,40,VB_FR,1,Value-Based Reward,Middle-Value
178,315,ua60hkvff,45,48,0,1.1922,experiment_VB,-3,47,3.6,0.4,22,25,3,1,"[2, 1, 8, 2, 8, 1]","[8, 3, 4, 4, 3, 3]",3,3,0,0,41,VB_FR,0,Value-Based Reward,Low-Value
179,316,ua60hkvff,47,48,1,1.3411,experiment_VB,13,57,3.6,0.4,35,22,13,1,"[7, 4, 6, 7, 8, 3]","[2, 4, 6, 1, 3, 6]",5,5,0,0,42,VB_FR,0,Value-Based Reward,Middle-Value
180,317,ua60hkvff,49,48,1,1.494,experiment_VB,6,56,3.6,0.4,31,25,6,1,"[1, 4, 6, 6, 7, 7]","[2, 4, 5, 4, 7, 3]",4,5,-1,1,43,VB_FR,1,Value-Based Reward,Middle-Value
181,318,ua60hkvff,50,48,1,1.647,experiment_VB,3,37,3.6,0.4,20,17,3,1,"[4, 3, 2, 6, 2, 3]","[1, 4, 1, 2, 2, 7]",4,4,0,0,44,VB_FR,0,Value-Based Reward,Low-Value
182,319,ua60hkvff,51,48,1,1.4144,experiment_VB,8,60,3.6,0.4,34,26,8,1,"[8, 4, 7, 5, 5, 5]","[6, 1, 6, 1, 8, 4]",4,4,0,0,45,VB_FR,0,Value-Based Reward,High-Value
183,320,ua60hkvff,52,48,1,1.2011,experiment_VB,3,65,3.6,0.4,34,31,3,1,"[8, 8, 4, 7, 5, 2]","[4, 4, 8, 5, 3, 7]",5,5,0,0,46,VB_FR,0,Value-Based Reward,High-Value
184,321,ua60hkvff,53,48,0,1.8514,experiment_VB,-5,45,3.6,0.4,20,25,5,1,"[1, 1, 2, 4, 5, 7]","[3, 3, 3, 2, 6, 8]",5,4,1,1,47,VB_FR,1,Value-Based Reward,Low-Value
185,322,ua60hkvff,54,48,1,1.9065,experiment_VB,0,56,3.6,0.4,28,28,0,0,"[1, 6, 8, 5, 5, 3]","[6, 1, 8, 3, 5, 5]",5,5,0,0,48,VB_FR,0,Value-Based Reward,Middle-Value
186,323,ua60hkvff,55,48,0,0.8872,experiment_VB,-5,55,3.6,0.4,25,30,5,1,"[4, 5, 4, 3, 2, 7]","[4, 5, 2, 7, 6, 6]",5,5,0,0,49,VB_FR,0,Value-Based Reward,Middle-Value
187,324,ua60hkvff,56,48,1,1.8801,experiment_VB,8,46,3.6,0.4,27,19,8,1,"[5, 6, 2, 8, 2, 4]","[4, 3, 2, 1, 3, 6]",5,5,0,0,50,VB_FR,0,Value-Based Reward,Low-Value
188,325,ua60hkvff,57,48,0,1.0627,experiment_VB,-9,49,3.6,0.4,20,29,9,1,"[6, 4, 2, 1, 6, 1]","[5, 7, 4, 7, 3, 3]",4,4,0,0,51,VB_FR,0,Value-Based Reward,Middle-Value
189,326,ua60hkvff,58,48,1,1.6517,experiment_VB,3,49,3.6,0.4,26,23,3,1,"[3, 5, 3, 5, 7, 3]","[3, 1, 6, 5, 4, 4]",3,5,-2,2,52,VB_FR,2,Value-Based Reward,Middle-Value
190,327,ua60hkvff,59,48,0,0.8121,experiment_VB,-17,55,3.6,0.4,19,36,17,1,"[6, 2, 2, 3, 5, 1]","[4, 8, 8, 1, 7, 8]",5,4,1,1,53,VB_FR,1,Value-Based Reward,Middle-Value
191,328,ua60hkvff,60,48,1,1.6034,experiment_VB,6,68,3.6,0.4,37,31,6,1,"[4, 7, 8, 6, 6, 6]","[1, 2, 6, 6, 8, 8]",4,4,0,0,54,VB_FR,0,Value-Based Reward,High-Value
192,329,ua60hkvff,61,48,1,0.9467,experiment_VB,6,34,3.6,0.4,20,14,6,1,"[2, 4, 8, 1, 3, 2]","[4, 3, 2, 1, 1, 3]",5,4,1,1,55,VB_FR,1,Value-Based Reward,Low-Value
193,330,ua60hkvff,62,48,1,0.9895,experiment_VB,2,50,3.6,0.4,26,24,2,1,"[4, 8, 6, 4, 2, 2]","[5, 5, 1, 7, 1, 5]",4,3,1,1,56,VB_FR,1,Value-Based Reward,Middle-Value
194,331,ua60hkvff,63,48,1,0.9938,experiment_VB,9,47,3.6,0.4,28,19,9,1,"[5, 3, 8, 3, 3, 6]","[5, 2, 2, 5, 4, 1]",4,4,0,0,57,VB_FR,0,Value-Based Reward,Low-Value
195,332,ua60hkvff,64,48,0,1.2734,experiment_VB,-3,39,3.6,0.4,18,21,3,1,"[3, 3, 3, 5, 3, 1]","[4, 3, 3, 5, 1, 5]",3,4,-1,1,58,VB_FR,1,Value-Based Reward,Low-Value
196,333,ua60hkvff,65,48,1,0.684,experiment_VB,15,39,3.6,0.4,27,12,15,1,"[6, 1, 5, 5, 7, 3]","[2, 1, 1, 3, 2, 3]",5,3,2,2,59,VB_FR,2,Value-Based Reward,Low-Value
197,334,ua60hkvff,66,48,1,0.7476,experiment_VB,13,49,3.6,0.4,31,18,13,1,"[5, 8, 6, 3, 5, 4]","[1, 1, 4, 1, 3, 8]",5,4,1,1,60,VB_FR,1,Value-Based Reward,Middle-Value
198,335,ua60hkvff,67,48,1,0.9022,experiment_VB,9,75,3.6,0.4,42,33,9,1,"[7, 8, 7, 8, 7, 5]","[7, 6, 7, 1, 8, 4]",3,5,-2,2,61,VB_FR,2,Value-Based Reward,High-Value
199,336,ua60hkvff,68,48,0,0.9242,experiment_VB,-6,60,3.6,0.4,27,33,6,1,"[1, 3, 4, 8, 8, 3]","[7, 3, 5, 7, 5, 6]",4,4,0,0,62,VB_FR,0,Value-Based Reward,High-Value
200,337,ua60hkvff,69,48,1,0.8784,experiment_VB,4,50,3.6,0.4,27,23,4,1,"[2, 2, 8, 6, 5, 4]","[1, 1, 7, 4, 6, 4]",5,4,1,1,63,VB_FR,1,Value-Based Reward,Middle-Value
201,338,ua60hkvff,70,48,0,0.5533,experiment_VB,-11,65,3.6,0.4,27,38,11,1,"[7, 2, 6, 6, 3, 3]","[8, 7, 7, 5, 3, 8]",4,4,0,0,64,VB_FR,0,Value-Based Reward,High-Value
202,339,ua60hkvff,71,48,1,0.5533,experiment_VB,11,53,3.6,0.4,32,21,11,1,"[7, 6, 4, 3, 6, 6]","[1, 8, 6, 1, 2, 3]",4,5,-1,1,65,VB_FR,1,Value-Based Reward,Middle-Value
203,340,ua60hkvff,72,48,1,0.8535,experiment_VB,0,50,3.6,0.4,25,25,0,0,"[5, 2, 4, 6, 2, 6]","[8, 6, 4, 4, 1, 2]",4,5,-1,1,66,VB_FR,1,Value-Based Reward,Middle-Value
204,341,ua60hkvff,73,48,0,0.5334,experiment_VB,-7,47,3.6,0.4,20,27,7,1,"[1, 7, 4, 2, 1, 5]","[1, 6, 2, 6, 6, 6]",5,3,2,2,67,VB_FR,2,Value-Based Reward,Low-Value
205,342,ua60hkvff,74,48,0,0.8188,experiment_VB,-8,62,3.6,0.4,27,35,8,1,"[7, 4, 4, 6, 2, 4]","[7, 8, 3, 8, 3, 6]",4,4,0,0,68,VB_FR,0,Value-Based Reward,High-Value
206,343,ua60hkvff,75,48,0,0.9219,experiment_VB,5,31,3.6,0.4,18,13,5,0,"[3, 2, 3, 4, 3, 3]","[6, 1, 2, 2, 1, 1]",3,3,0,0,69,VB_FR,0,Value-Based Reward,Low-Value
207,344,ua60hkvff,76,48,1,0.7408,experiment_VB,17,61,3.6,0.4,39,22,17,1,"[7, 3, 7, 6, 8, 8]","[2, 7, 3, 6, 2, 2]",4,4,0,0,70,VB_FR,0,Value-Based Reward,High-Value
208,345,ua60hkvff,77,48,0,0.8031,experiment_VB,-7,51,3.6,0.4,22,29,7,1,"[4, 1, 7, 3, 2, 5]","[6, 5, 1, 5, 7, 5]",6,4,2,2,71,VB_FR,2,Value-Based Reward,Middle-Value
209,346,ua60hkvff,78,48,0,0.7253,experiment_VB,2,54,3.6,0.4,28,26,2,0,"[3, 4, 4, 2, 7, 8]","[7, 8, 5, 1, 4, 1]",5,5,0,0,72,VB_FR,0,Value-Based Reward,Middle-Value
210,347,ua60hkvff,79,48,0,1.4475,experiment_VB,3,55,3.6,0.4,29,26,3,0,"[1, 5, 4, 7, 8, 4]","[8, 8, 2, 3, 2, 3]",5,3,2,2,73,VB_FR,2,Value-Based Reward,Middle-Value
211,348,ua60hkvff,80,48,1,0.6363,experiment_VB,4,60,3.6,0.4,32,28,4,1,"[2, 8, 4, 2, 8, 8]","[4, 8, 7, 2, 3, 4]",3,5,-2,2,74,VB_FR,2,Value-Based Reward,High-Value
212,349,ua60hkvff,81,48,1,1.1564,experiment_VB,0,66,3.6,0.4,33,33,0,0,"[1, 5, 6, 8, 5, 8]","[3, 4, 6, 7, 7, 6]",4,4,0,0,75,VB_FR,0,Value-Based Reward,High-Value
213,350,ua60hkvff,82,48,0,1.1192,experiment_VB,-11,53,3.6,0.4,21,32,11,1,"[1, 8, 3, 4, 3, 2]","[5, 8, 4, 2, 6, 7]",5,6,-1,1,76,VB_FR,1,Value-Based Reward,Middle-Value
214,351,ua60hkvff,83,48,0,0.4372,experiment_VB,-13,71,3.6,0.4,29,42,13,1,"[8, 3, 5, 5, 4, 4]","[8, 8, 6, 8, 6, 6]",4,2,2,2,77,VB_FR,2,Value-Based Reward,High-Value
215,352,ua60hkvff,84,48,1,0.7117,experiment_VB,5,45,3.6,0.4,25,20,5,1,"[2, 8, 7, 1, 4, 3]","[6, 6, 2, 3, 1, 2]",6,4,2,2,78,VB_FR,2,Value-Based Reward,Low-Value
216,353,ua60hkvff,85,48,0,0.5071,experiment_VB,-5,67,3.6,0.4,31,36,5,1,"[7, 3, 6, 3, 4, 8]","[5, 6, 8, 8, 2, 7]",5,5,0,0,79,VB_FR,0,Value-Based Reward,High-Value
217,354,ua60hkvff,86,48,0,0.935,experiment_VB,2,54,3.6,0.4,28,26,2,0,"[5, 3, 5, 6, 2, 7]","[6, 1, 2, 3, 7, 7]",5,5,0,0,80,VB_FR,0,Value-Based Reward,Middle-Value
218,355,ua60hkvff,87,48,0,0.4819,experiment_VB,-5,53,3.6,0.4,24,29,5,1,"[8, 4, 3, 5, 3, 1]","[7, 2, 7, 8, 4, 1]",5,5,0,0,81,VB_FR,0,Value-Based Reward,Middle-Value
219,356,ua60hkvff,88,48,1,0.4752,experiment_VB,19,69,3.6,0.4,44,25,19,1,"[8, 8, 6, 8, 6, 8]","[8, 3, 5, 4, 3, 2]",2,5,-3,3,82,VB_FR,3,Value-Based Reward,High-Value
220,357,ua60hkvff,89,48,0,0.6237,experiment_VB,-13,45,3.6,0.4,16,29,13,1,"[6, 3, 1, 4, 1, 1]","[6, 5, 3, 6, 2, 7]",4,5,-1,1,83,VB_FR,1,Value-Based Reward,Low-Value
221,358,ua60hkvff,90,48,1,0.8438,experiment_VB,2,40,3.6,0.4,21,19,2,1,"[6, 7, 1, 3, 1, 3]","[4, 5, 4, 2, 1, 3]",4,5,-1,1,84,VB_FR,1,Value-Based Reward,Low-Value
222,359,ua60hkvff,91,48,0,0.4862,experiment_VB,-2,52,3.6,0.4,25,27,2,1,"[4, 3, 6, 8, 2, 2]","[7, 7, 4, 4, 1, 4]",5,3,2,2,85,VB_FR,2,Value-Based Reward,Middle-Value
223,360,ua60hkvff,92,48,1,0.5817,experiment_VB,5,61,3.6,0.4,33,28,5,1,"[8, 7, 7, 2, 4, 5]","[7, 5, 3, 2, 3, 8]",5,5,0,0,86,VB_FR,0,Value-Based Reward,High-Value
224,361,ua60hkvff,93,48,1,0.5177,experiment_VB,8,46,3.6,0.4,27,19,8,1,"[1, 6, 6, 3, 8, 3]","[3, 1, 6, 4, 4, 1]",4,4,0,0,87,VB_FR,0,Value-Based Reward,Low-Value
225,362,ua60hkvff,94,48,1,0.62,experiment_VB,5,49,3.6,0.4,27,22,5,1,"[5, 2, 7, 6, 5, 2]","[3, 1, 5, 6, 1, 6]",4,4,0,0,88,VB_FR,0,Value-Based Reward,Middle-Value
226,363,ua60hkvff,95,48,1,0.5771,experiment_VB,-3,63,3.6,0.4,30,33,3,0,"[6, 1, 3, 7, 5, 8]","[5, 3, 8, 6, 7, 4]",6,6,0,0,89,VB_FR,0,Value-Based Reward,High-Value
227,364,ua60hkvff,96,48,0,0.5402,experiment_VB,-17,51,3.6,0.4,17,34,17,1,"[4, 4, 1, 1, 1, 6]","[5, 2, 8, 7, 8, 4]",3,5,-2,2,90,VB_FR,2,Value-Based Reward,Middle-Value
228,365,ua60hkvff,97,48,1,0.6074,experiment_VB,13,57,3.6,0.4,35,22,13,1,"[8, 5, 7, 8, 1, 6]","[2, 8, 4, 4, 3, 1]",5,5,0,0,91,VB_FR,0,Value-Based Reward,Middle-Value
229,366,ua60hkvff,98,48,0,0.7098,experiment_VB,-5,39,3.6,0.4,17,22,5,1,"[2, 3, 2, 6, 1, 3]","[7, 2, 4, 4, 3, 2]",4,4,0,0,92,VB_FR,0,Value-Based Reward,Low-Value
230,367,ua60hkvff,99,48,0,0.544,experiment_VB,-12,56,3.6,0.4,22,34,12,1,"[6, 1, 3, 1, 6, 5]","[5, 8, 7, 4, 3, 7]",4,5,-1,1,93,VB_FR,1,Value-Based Reward,Middle-Value
231,368,ua60hkvff,100,48,1,0.9824,experiment_VB,6,56,3.6,0.4,31,25,6,1,"[3, 6, 2, 7, 5, 8]","[8, 6, 4, 4, 1, 2]",6,5,1,1,94,VB_FR,1,Value-Based Reward,Middle-Value
232,369,ua60hkvff,101,48,1,0.5586,experiment_VB,7,61,3.6,0.4,34,27,7,1,"[6, 1, 7, 6, 6, 8]","[3, 7, 6, 8, 2, 1]",4,6,-2,2,95,VB_FR,2,Value-Based Reward,High-Value
233,370,ua60hkvff,102,48,0,0.7382,experiment_VB,-8,58,3.6,0.4,25,33,8,1,"[2, 3, 6, 1, 6, 7]","[5, 8, 8, 1, 7, 4]",5,5,0,0,96,VB_FR,0,Value-Based Reward,Middle-Value
234,371,ua60hkvff,103,48,0,0.5547,experiment_VB,-10,56,3.6,0.4,23,33,10,1,"[8, 2, 2, 1, 4, 6]","[6, 6, 5, 7, 8, 1]",5,5,0,0,97,VB_FR,0,Value-Based Reward,Middle-Value
235,372,ua60hkvff,104,48,0,0.4754,experiment_VB,-13,53,3.6,0.4,20,33,13,1,"[5, 2, 3, 1, 7, 2]","[6, 7, 7, 2, 4, 7]",5,4,1,1,98,VB_FR,1,Value-Based Reward,Middle-Value
236,373,ua60hkvff,105,48,1,1.6016,experiment_VB,2,36,3.6,0.4,19,17,2,1,"[2, 2, 4, 4, 5, 2]","[3, 6, 1, 2, 4, 1]",3,5,-2,2,99,VB_FR,2,Value-Based Reward,Low-Value
237,374,ua60hkvff,106,48,0,0.5618,experiment_VB,-7,57,3.6,0.4,25,32,7,1,"[6, 3, 1, 6, 6, 3]","[8, 2, 1, 5, 8, 8]",3,4,-1,1,100,VB_FR,1,Value-Based Reward,Middle-Value
238,375,ua60hkvff,107,48,0,0.9839,experiment_VB,1,57,3.6,0.4,29,28,1,0,"[3, 7, 7, 5, 3, 4]","[2, 6, 2, 6, 6, 6]",4,2,2,2,101,VB_FR,2,Value-Based Reward,Middle-Value
239,376,ua60hkvff,108,48,1,1.0521,experiment_VB,4,42,3.6,0.4,23,19,4,1,"[1, 6, 2, 2, 8, 4]","[3, 2, 3, 1, 3, 7]",5,4,1,1,102,VB_FR,1,Value-Based Reward,Low-Value
240,377,ua60hkvff,109,48,1,0.7887,experiment_VB,4,62,3.6,0.4,33,29,4,1,"[7, 2, 7, 5, 7, 5]","[2, 7, 4, 5, 4, 7]",3,4,-1,1,103,VB_FR,1,Value-Based Reward,High-Value
241,378,ua60hkvff,110,48,1,0.7338,experiment_VB,8,46,3.6,0.4,27,19,8,1,"[4, 6, 2, 8, 5, 2]","[2, 7, 1, 2, 2, 5]",5,4,1,1,104,VB_FR,1,Value-Based Reward,Low-Value
242,379,ua60hkvff,111,48,1,0.5131,experiment_VB,10,56,3.6,0.4,33,23,10,1,"[8, 7, 6, 6, 3, 3]","[2, 3, 1, 8, 4, 5]",4,6,-2,2,105,VB_FR,2,Value-Based Reward,Middle-Value
243,380,ua60hkvff,112,48,0,0.3639,experiment_VB,-8,52,3.6,0.4,22,30,8,1,"[2, 3, 3, 3, 5, 6]","[8, 5, 3, 7, 5, 2]",4,5,-1,1,106,VB_FR,1,Value-Based Reward,Middle-Value
244,381,ua60hkvff,113,48,0,0.5501,experiment_VB,4,52,3.6,0.4,28,24,4,0,"[7, 6, 4, 4, 3, 4]","[4, 5, 1, 2, 6, 6]",4,5,-1,1,107,VB_FR,1,Value-Based Reward,Middle-Value
245,382,ua60hkvff,114,48,0,0.4413,experiment_VB,8,68,3.6,0.4,38,30,8,0,"[5, 8, 8, 6, 4, 7]","[7, 6, 8, 3, 2, 4]",5,6,-1,1,108,VB_FR,1,Value-Based Reward,High-Value
246,383,ua60hkvff,115,48,1,0.4449,experiment_VB,4,52,3.6,0.4,28,24,4,1,"[5, 8, 8, 3, 3, 1]","[4, 4, 2, 8, 3, 3]",4,4,0,0,109,VB_FR,0,Value-Based Reward,Middle-Value
247,384,ua60hkvff,116,48,0,0.5658,experiment_VB,-12,44,3.6,0.4,16,28,12,1,"[2, 5, 4, 2, 2, 1]","[3, 6, 4, 3, 7, 5]",4,5,-1,1,110,VB_FR,1,Value-Based Reward,Low-Value
248,385,ua60hkvff,117,48,0,0.8276,experiment_VB,0,52,3.6,0.4,26,26,0,0,"[4, 2, 5, 1, 7, 7]","[8, 1, 8, 3, 3, 3]",5,3,2,2,111,VB_FR,2,Value-Based Reward,Middle-Value
249,386,ua60hkvff,118,48,0,0.6376,experiment_VB,-1,59,3.6,0.4,29,30,1,1,"[7, 3, 3, 8, 6, 2]","[7, 7, 3, 3, 3, 7]",5,2,3,3,112,VB_FR,3,Value-Based Reward,Middle-Value
250,387,ua60hkvff,119,48,0,0.9448,experiment_VB,-1,37,3.6,0.4,18,19,1,1,"[1, 2, 1, 1, 6, 7]","[6, 1, 2, 8, 1, 1]",4,4,0,0,113,VB_FR,0,Value-Based Reward,Low-Value
251,388,ua60hkvff,120,48,0,0.5163,experiment_VB,-7,45,3.6,0.4,19,26,7,1,"[6, 4, 2, 1, 1, 5]","[3, 8, 4, 6, 3, 2]",5,5,0,0,114,VB_FR,0,Value-Based Reward,Low-Value
252,389,ua60hkvff,121,48,0,0.7129,experiment_VB,2,54,3.6,0.4,28,26,2,0,"[4, 4, 1, 6, 8, 5]","[7, 3, 2, 5, 3, 6]",5,5,0,0,115,VB_FR,0,Value-Based Reward,Middle-Value
253,390,ua60hkvff,122,48,1,0.4392,experiment_VB,8,62,3.6,0.4,35,27,8,1,"[7, 5, 7, 8, 6, 2]","[5, 2, 8, 5, 3, 4]",5,5,0,0,116,VB_FR,0,Value-Based Reward,High-Value
254,391,ua60hkvff,123,48,0,0.4127,experiment_VB,-1,67,3.6,0.4,33,34,1,1,"[5, 8, 3, 7, 5, 5]","[7, 7, 6, 5, 7, 2]",4,4,0,0,117,VB_FR,0,Value-Based Reward,High-Value
255,392,ua60hkvff,124,48,1,0.8476,experiment_VB,8,58,3.6,0.4,33,25,8,1,"[4, 8, 2, 7, 5, 7]","[8, 6, 4, 1, 3, 3]",5,5,0,0,118,VB_FR,0,Value-Based Reward,Middle-Value
256,393,ua60hkvff,125,48,1,0.463,experiment_VB,6,56,3.6,0.4,31,25,6,1,"[7, 6, 3, 4, 4, 7]","[4, 3, 3, 5, 7, 3]",4,4,0,0,119,VB_FR,0,Value-Based Reward,Middle-Value
257,394,ua60hkvff,126,48,1,0.6856,experiment_VB,7,43,3.6,0.4,25,18,7,1,"[5, 8, 3, 4, 1, 4]","[1, 8, 1, 1, 1, 6]",5,3,2,2,120,VB_FR,2,Value-Based Reward,Low-Value
258,395,ua60hkvff,127,48,1,0.6431,experiment_VB,0,48,3.6,0.4,24,24,0,0,"[3, 6, 3, 3, 8, 1]","[4, 1, 2, 8, 4, 5]",4,5,-1,1,121,VB_FR,1,Value-Based Reward,Middle-Value
259,396,ua60hkvff,128,48,1,0.8791,experiment_VB,4,58,3.6,0.4,31,27,4,1,"[8, 8, 2, 5, 7, 1]","[8, 8, 1, 4, 5, 1]",5,4,1,1,122,VB_FR,1,Value-Based Reward,Middle-Value
260,397,ua60hkvff,129,48,1,0.6405,experiment_VB,7,67,3.6,0.4,37,30,7,1,"[7, 8, 3, 6, 7, 6]","[4, 6, 4, 7, 7, 2]",4,4,0,0,123,VB_FR,0,Value-Based Reward,High-Value
261,398,ua60hkvff,130,48,0,0.5769,experiment_VB,-1,71,3.6,0.4,35,36,1,1,"[8, 5, 6, 6, 2, 8]","[7, 6, 8, 5, 4, 6]",4,5,-1,1,124,VB_FR,1,Value-Based Reward,High-Value
262,399,ua60hkvff,131,48,1,0.4585,experiment_VB,6,52,3.6,0.4,29,23,6,1,"[8, 7, 7, 4, 2, 1]","[1, 8, 4, 6, 3, 1]",5,5,0,0,125,VB_FR,0,Value-Based Reward,Middle-Value
263,400,ua60hkvff,132,48,0,0.7016,experiment_VB,-9,53,3.6,0.4,22,31,9,1,"[4, 2, 2, 8, 1, 5]","[4, 3, 7, 4, 8, 5]",5,5,0,0,126,VB_FR,0,Value-Based Reward,Middle-Value
264,401,ua60hkvff,133,48,0,0.697,experiment_VB,-5,59,3.6,0.4,27,32,5,1,"[1, 8, 8, 2, 3, 5]","[7, 1, 3, 8, 8, 5]",5,5,0,0,127,VB_FR,0,Value-Based Reward,Middle-Value
265,402,ua60hkvff,134,48,0,0.4475,experiment_VB,-15,51,3.6,0.4,18,33,15,1,"[7, 1, 1, 5, 3, 1]","[7, 8, 5, 5, 6, 2]",4,5,-1,1,128,VB_FR,1,Value-Based Reward,Middle-Value
266,403,ua60hkvff,135,48,1,0.4869,experiment_VB,16,50,3.6,0.4,33,17,16,1,"[2, 8, 8, 4, 8, 3]","[5, 5, 1, 1, 4, 1]",4,3,1,1,129,VB_FR,1,Value-Based Reward,Middle-Value
267,404,ua60hkvff,136,48,1,0.5662,experiment_VB,4,44,3.6,0.4,24,20,4,1,"[4, 2, 7, 2, 1, 8]","[1, 7, 3, 7, 1, 1]",5,3,2,2,130,VB_FR,2,Value-Based Reward,Low-Value
268,405,ua60hkvff,137,48,0,0.9603,experiment_VB,-2,56,3.6,0.4,27,29,2,1,"[4, 6, 6, 3, 6, 2]","[6, 6, 3, 7, 5, 2]",4,5,-1,1,131,VB_FR,1,Value-Based Reward,Middle-Value
269,406,ua60hkvff,138,48,0,0.5319,experiment_VB,-7,61,3.6,0.4,27,34,7,1,"[5, 3, 4, 5, 3, 7]","[4, 7, 6, 5, 8, 4]",4,5,-1,1,132,VB_FR,1,Value-Based Reward,High-Value
270,407,ua60hkvff,139,48,1,0.5424,experiment_VB,9,51,3.6,0.4,30,21,9,1,"[2, 1, 7, 7, 5, 8]","[8, 1, 3, 1, 4, 4]",5,4,1,1,133,VB_FR,1,Value-Based Reward,Middle-Value
271,408,ua60hkvff,140,48,0,0.4283,experiment_VB,-5,55,3.6,0.4,25,30,5,1,"[2, 5, 8, 3, 3, 4]","[3, 4, 8, 2, 5, 8]",5,5,0,0,134,VB_FR,0,Value-Based Reward,Middle-Value
272,409,ua60hkvff,141,48,0,0.7982,experiment_VB,-1,43,3.6,0.4,21,22,1,1,"[7, 1, 7, 1, 1, 4]","[7, 3, 1, 5, 1, 5]",3,4,-1,1,135,VB_FR,1,Value-Based Reward,Low-Value
273,410,ua60hkvff,142,48,0,0.455,experiment_VB,-9,65,3.6,0.4,28,37,9,1,"[3, 3, 5, 6, 3, 8]","[8, 7, 2, 7, 8, 5]",4,4,0,0,136,VB_FR,0,Value-Based Reward,High-Value
274,411,ua60hkvff,143,48,0,0.4196,experiment_VB,-16,50,3.6,0.4,17,33,16,1,"[3, 2, 6, 1, 2, 3]","[7, 5, 5, 8, 4, 4]",4,4,0,0,137,VB_FR,0,Value-Based Reward,Middle-Value
275,412,ua60hkvff,144,48,1,1.4381,experiment_VB,-3,45,3.6,0.4,21,24,3,0,"[3, 8, 2, 2, 5, 1]","[6, 1, 4, 5, 4, 4]",5,4,1,1,138,VB_FR,1,Value-Based Reward,Low-Value
276,413,ua60hkvff,145,48,1,0.8647,experiment_VB,8,46,3.6,0.4,27,19,8,1,"[4, 1, 6, 4, 7, 5]","[2, 4, 1, 1, 3, 8]",5,5,0,0,139,VB_FR,0,Value-Based Reward,Low-Value
277,414,ua60hkvff,146,48,0,0.4841,experiment_VB,-3,49,3.6,0.4,23,26,3,1,"[1, 3, 5, 7, 6, 1]","[2, 7, 8, 2, 2, 5]",5,4,1,1,140,VB_FR,1,Value-Based Reward,Middle-Value
278,415,ua60hkvff,147,48,1,0.6047,experiment_VB,-1,53,3.6,0.4,26,27,1,0,"[2, 1, 2, 7, 7, 7]","[5, 2, 5, 7, 2, 6]",3,4,-1,1,141,VB_FR,1,Value-Based Reward,Middle-Value
279,416,ua60hkvff,148,48,0,0.5189,experiment_VB,-2,56,3.6,0.4,27,29,2,1,"[2, 4, 8, 1, 7, 5]","[4, 6, 1, 5, 6, 7]",6,5,1,1,142,VB_FR,1,Value-Based Reward,Middle-Value
280,417,ua60hkvff,149,48,1,0.5714,experiment_VB,7,69,3.6,0.4,38,31,7,1,"[7, 6, 8, 3, 7, 7]","[8, 5, 6, 4, 1, 7]",4,6,-2,2,143,VB_FR,2,Value-Based Reward,High-Value
281,418,ua60hkvff,150,48,1,0.4838,experiment_VB,16,62,3.6,0.4,39,23,16,1,"[8, 8, 3, 6, 6, 8]","[3, 8, 1, 2, 4, 5]",3,6,-3,3,144,VB_FR,3,Value-Based Reward,High-Value
282,564,o2ql6etsj,1,38,0,0.8124,experiment_VB,-9,49,2.6,0.8,20,29,9,1,"[6, 1, 3, 3, 3, 4]","[7, 2, 6, 8, 5, 1]",4,6,-2,2,1,VB_FR,2,Value-Based Reward,Middle-Value
283,565,o2ql6etsj,2,38,1,0.7276,experiment_VB,17,61,2.6,0.8,39,22,17,1,"[3, 8, 5, 8, 8, 7]","[3, 4, 1, 5, 4, 5]",4,4,0,0,2,VB_FR,0,Value-Based Reward,High-Value
284,566,o2ql6etsj,3,38,0,2.4776,experiment_VB,-4,58,2.6,0.8,27,31,4,1,"[5, 5, 1, 4, 8, 4]","[4, 6, 6, 8, 5, 2]",4,5,-1,1,3,VB_FR,1,Value-Based Reward,Middle-Value
285,567,o2ql6etsj,4,38,1,2.0452,experiment_VB,5,43,2.6,0.8,24,19,5,1,"[5, 2, 1, 4, 4, 8]","[2, 1, 4, 7, 4, 1]",5,4,1,1,4,VB_FR,1,Value-Based Reward,Low-Value
286,568,o2ql6etsj,5,38,0,1.8106,experiment_VB,1,49,2.6,0.8,25,24,1,0,"[5, 2, 7, 4, 1, 6]","[5, 4, 2, 7, 1, 5]",6,5,1,1,5,VB_FR,1,Value-Based Reward,Middle-Value
287,569,o2ql6etsj,6,38,0,0.7988,experiment_VB,-14,44,2.6,0.8,15,29,14,1,"[1, 2, 6, 3, 2, 1]","[3, 6, 7, 7, 4, 2]",4,5,-1,1,6,VB_FR,1,Value-Based Reward,Low-Value
288,570,o2ql6etsj,7,38,1,0.8604,experiment_VB,11,57,2.6,0.8,34,23,11,1,"[8, 8, 4, 6, 4, 4]","[5, 6, 3, 3, 3, 3]",3,3,0,0,7,VB_FR,0,Value-Based Reward,Middle-Value
289,571,o2ql6etsj,8,38,0,0.5916,experiment_VB,-17,45,2.6,0.8,14,31,17,1,"[3, 1, 1, 3, 5, 1]","[6, 1, 6, 7, 6, 5]",3,4,-1,1,8,VB_FR,1,Value-Based Reward,Low-Value
290,572,o2ql6etsj,9,38,0,1.5188,experiment_VB,-8,54,2.6,0.8,23,31,8,1,"[1, 8, 1, 5, 1, 7]","[5, 8, 5, 8, 1, 4]",4,4,0,0,9,VB_FR,0,Value-Based Reward,Middle-Value
291,573,o2ql6etsj,10,38,0,1.0211,experiment_VB,-6,60,2.6,0.8,27,33,6,1,"[8, 1, 1, 6, 8, 3]","[8, 6, 3, 7, 1, 8]",4,5,-1,1,10,VB_FR,1,Value-Based Reward,High-Value
292,574,o2ql6etsj,11,38,1,3.4808,experiment_VB,5,57,2.6,0.8,31,26,5,1,"[7, 3, 7, 5, 1, 8]","[4, 1, 8, 8, 2, 3]",5,5,0,0,11,VB_FR,0,Value-Based Reward,Middle-Value
293,575,o2ql6etsj,12,38,1,2.1873,experiment_VB,5,43,2.6,0.8,24,19,5,1,"[2, 6, 5, 3, 3, 5]","[6, 6, 2, 3, 1, 1]",4,4,0,0,12,VB_FR,0,Value-Based Reward,Low-Value
294,576,o2ql6etsj,13,38,1,1.7517,experiment_VB,6,58,2.6,0.8,32,26,6,1,"[6, 5, 4, 7, 3, 7]","[8, 7, 3, 2, 5, 1]",5,6,-1,1,13,VB_FR,1,Value-Based Reward,Middle-Value
295,577,o2ql6etsj,14,38,0,1.7511,experiment_VB,-3,47,2.6,0.8,22,25,3,1,"[6, 3, 4, 2, 1, 6]","[3, 5, 3, 2, 4, 8]",5,5,0,0,14,VB_FR,0,Value-Based Reward,Low-Value
296,578,o2ql6etsj,15,38,0,1.2849,experiment_VB,-3,27,2.6,0.8,12,15,3,1,"[1, 2, 2, 2, 1, 4]","[2, 2, 1, 2, 2, 6]",3,3,0,0,15,VB_FR,0,Value-Based Reward,Low-Value
297,579,o2ql6etsj,16,38,0,0.9458,experiment_VB,-6,44,2.6,0.8,19,25,6,1,"[8, 4, 1, 2, 2, 2]","[1, 8, 7, 5, 3, 1]",4,5,-1,1,16,VB_FR,1,Value-Based Reward,Low-Value
298,580,o2ql6etsj,17,38,0,3.1288,experiment_VB,-5,55,2.6,0.8,25,30,5,1,"[6, 2, 4, 1, 7, 5]","[6, 1, 7, 2, 7, 7]",6,4,2,2,17,VB_FR,2,Value-Based Reward,Middle-Value
299,581,o2ql6etsj,18,38,0,1.3385,experiment_VB,-8,50,2.6,0.8,21,29,8,1,"[3, 1, 8, 1, 6, 2]","[5, 8, 7, 5, 3, 1]",5,5,0,0,18,VB_FR,0,Value-Based Reward,Middle-Value
300,582,o2ql6etsj,19,38,1,0.9717,experiment_VB,4,54,2.6,0.8,29,25,4,1,"[4, 5, 3, 6, 6, 5]","[7, 7, 3, 4, 2, 2]",4,4,0,0,19,VB_FR,0,Value-Based Reward,Middle-Value
301,583,o2ql6etsj,20,38,1,2.642,experiment_VB,0,64,2.6,0.8,32,32,0,0,"[8, 7, 8, 1, 1, 7]","[8, 3, 2, 6, 8, 5]",3,5,-2,2,20,VB_FR,2,Value-Based Reward,High-Value
302,584,o2ql6etsj,21,38,0,1.1141,experiment_VB,-4,58,2.6,0.8,27,31,4,1,"[5, 4, 6, 3, 6, 3]","[2, 4, 4, 6, 7, 8]",4,5,-1,1,21,VB_FR,1,Value-Based Reward,Middle-Value
303,585,o2ql6etsj,22,38,0,1.2008,experiment_VB,-6,44,2.6,0.8,19,25,6,1,"[2, 8, 3, 4, 1, 1]","[1, 7, 2, 7, 7, 1]",5,3,2,2,22,VB_FR,2,Value-Based Reward,Low-Value
304,586,o2ql6etsj,23,38,1,0.8793,experiment_VB,12,60,2.6,0.8,36,24,12,1,"[5, 8, 7, 8, 5, 3]","[8, 1, 3, 1, 3, 8]",4,3,1,1,23,VB_FR,1,Value-Based Reward,High-Value
305,587,o2ql6etsj,24,38,1,1.1743,experiment_VB,9,63,2.6,0.8,36,27,9,1,"[7, 2, 6, 8, 8, 5]","[6, 8, 2, 2, 2, 7]",5,4,1,1,24,VB_FR,1,Value-Based Reward,High-Value
306,588,o2ql6etsj,25,38,0,3.107,experiment_VB,-5,63,2.6,0.8,29,34,5,1,"[6, 7, 4, 5, 6, 1]","[6, 7, 4, 6, 8, 3]",5,5,0,0,25,VB_FR,0,Value-Based Reward,High-Value
307,589,o2ql6etsj,26,38,1,1.804,experiment_VB,5,39,2.6,0.8,22,17,5,1,"[2, 5, 4, 1, 8, 2]","[1, 2, 1, 7, 5, 1]",5,4,1,1,26,VB_FR,1,Value-Based Reward,Low-Value
308,590,o2ql6etsj,28,38,0,1.1811,experiment_VB,-2,62,2.6,0.8,30,32,2,1,"[3, 4, 3, 7, 8, 5]","[8, 5, 2, 1, 8, 8]",5,4,1,1,27,VB_FR,1,Value-Based Reward,High-Value
309,591,o2ql6etsj,29,38,0,0.8814,experiment_VB,-9,51,2.6,0.8,21,30,9,1,"[1, 8, 2, 3, 5, 2]","[3, 3, 5, 6, 7, 6]",5,4,1,1,28,VB_FR,1,Value-Based Reward,Middle-Value
310,592,o2ql6etsj,32,38,0,1.2108,experiment_VB,-9,65,2.6,0.8,28,37,9,1,"[1, 4, 8, 8, 5, 2]","[7, 3, 7, 7, 8, 5]",5,4,1,1,29,VB_FR,1,Value-Based Reward,High-Value
311,593,o2ql6etsj,33,38,1,1.6407,experiment_VB,2,64,2.6,0.8,33,31,2,1,"[3, 6, 5, 4, 8, 7]","[4, 1, 8, 4, 8, 6]",6,4,2,2,30,VB_FR,2,Value-Based Reward,High-Value
312,594,o2ql6etsj,34,38,1,1.69,experiment_VB,11,57,2.6,0.8,34,23,11,1,"[7, 7, 6, 1, 8, 5]","[3, 5, 5, 2, 1, 7]",5,5,0,0,31,VB_FR,0,Value-Based Reward,Middle-Value
313,595,o2ql6etsj,35,38,1,2.7067,experiment_VB,4,64,2.6,0.8,34,30,4,1,"[8, 7, 7, 8, 3, 1]","[8, 5, 8, 3, 5, 1]",4,4,0,0,32,VB_FR,0,Value-Based Reward,High-Value
314,596,o2ql6etsj,36,38,0,1.7751,experiment_VB,-10,60,2.6,0.8,25,35,10,1,"[3, 2, 7, 3, 7, 3]","[4, 8, 6, 8, 2, 7]",3,5,-2,2,33,VB_FR,2,Value-Based Reward,High-Value
315,597,o2ql6etsj,37,38,1,1.8818,experiment_VB,6,44,2.6,0.8,25,19,6,1,"[7, 5, 6, 2, 1, 4]","[4, 5, 1, 3, 1, 5]",6,4,2,2,34,VB_FR,2,Value-Based Reward,Low-Value
316,598,o2ql6etsj,38,38,1,1.2793,experiment_VB,4,56,2.6,0.8,30,26,4,1,"[7, 2, 8, 7, 2, 4]","[8, 6, 2, 3, 6, 1]",4,5,-1,1,35,VB_FR,1,Value-Based Reward,Middle-Value
317,599,o2ql6etsj,39,38,1,1.5719,experiment_VB,6,64,2.6,0.8,35,29,6,1,"[4, 5, 4, 7, 8, 7]","[8, 1, 2, 8, 7, 3]",4,5,-1,1,36,VB_FR,1,Value-Based Reward,High-Value
318,600,o2ql6etsj,41,38,1,1.258,experiment_VB,10,46,2.6,0.8,28,18,10,1,"[2, 5, 2, 3, 8, 8]","[3, 1, 5, 2, 1, 6]",4,5,-1,1,37,VB_FR,1,Value-Based Reward,Low-Value
319,601,o2ql6etsj,43,38,1,3.0813,experiment_VB,7,65,2.6,0.8,36,29,7,1,"[6, 3, 6, 8, 5, 8]","[5, 3, 7, 3, 8, 3]",4,4,0,0,38,VB_FR,0,Value-Based Reward,High-Value
320,602,o2ql6etsj,44,38,1,2.057,experiment_VB,4,48,2.6,0.8,26,22,4,1,"[6, 4, 5, 5, 4, 2]","[5, 1, 8, 1, 1, 6]",4,4,0,0,39,VB_FR,0,Value-Based Reward,Middle-Value
321,603,o2ql6etsj,45,38,0,1.2474,experiment_VB,-4,54,2.6,0.8,25,29,4,1,"[6, 2, 1, 3, 5, 8]","[7, 6, 5, 6, 1, 4]",6,5,1,1,40,VB_FR,1,Value-Based Reward,Middle-Value
322,604,o2ql6etsj,46,38,0,1.2651,experiment_VB,-9,53,2.6,0.8,22,31,9,1,"[7, 3, 3, 2, 3, 4]","[2, 4, 7, 5, 5, 8]",4,5,-1,1,41,VB_FR,1,Value-Based Reward,Middle-Value
323,605,o2ql6etsj,48,38,1,2.3377,experiment_VB,11,51,2.6,0.8,31,20,11,1,"[3, 4, 7, 2, 7, 8]","[3, 3, 3, 6, 4, 1]",5,4,1,1,42,VB_FR,1,Value-Based Reward,Middle-Value
324,606,o2ql6etsj,49,38,1,1.213,experiment_VB,8,46,2.6,0.8,27,19,8,1,"[7, 2, 2, 5, 7, 4]","[4, 2, 3, 6, 3, 1]",4,5,-1,1,43,VB_FR,1,Value-Based Reward,Low-Value
325,607,o2ql6etsj,50,38,1,2.2074,experiment_VB,7,43,2.6,0.8,25,18,7,1,"[7, 1, 5, 2, 5, 5]","[7, 2, 5, 1, 1, 2]",4,4,0,0,44,VB_FR,0,Value-Based Reward,Low-Value
326,608,o2ql6etsj,51,38,1,3.4612,experiment_VB,3,61,2.6,0.8,32,29,3,1,"[6, 8, 1, 8, 5, 4]","[1, 7, 8, 8, 3, 2]",5,5,0,0,45,VB_FR,0,Value-Based Reward,High-Value
327,609,o2ql6etsj,52,38,1,0.7582,experiment_VB,13,59,2.6,0.8,36,23,13,1,"[2, 8, 7, 8, 4, 7]","[2, 5, 3, 4, 7, 2]",4,5,-1,1,46,VB_FR,1,Value-Based Reward,Middle-Value
328,610,o2ql6etsj,53,38,0,0.6425,experiment_VB,-14,42,2.6,0.8,14,28,14,1,"[3, 1, 2, 5, 2, 1]","[7, 1, 7, 4, 7, 2]",4,4,0,0,47,VB_FR,0,Value-Based Reward,Low-Value
329,611,o2ql6etsj,54,38,1,1.011,experiment_VB,4,60,2.6,0.8,32,28,4,1,"[6, 2, 8, 5, 6, 5]","[4, 8, 3, 3, 4, 6]",4,4,0,0,48,VB_FR,0,Value-Based Reward,High-Value
330,612,o2ql6etsj,56,38,0,3.776,experiment_VB,-2,38,2.6,0.8,18,20,2,1,"[2, 4, 1, 3, 2, 6]","[1, 2, 2, 1, 6, 8]",5,4,1,1,49,VB_FR,1,Value-Based Reward,Low-Value
331,613,o2ql6etsj,57,38,0,0.904,experiment_VB,-9,43,2.6,0.8,17,26,9,1,"[3, 7, 1, 3, 1, 2]","[4, 8, 1, 6, 6, 1]",4,4,0,0,50,VB_FR,0,Value-Based Reward,Low-Value
332,614,o2ql6etsj,58,38,1,1.0008,experiment_VB,5,53,2.6,0.8,29,24,5,1,"[3, 4, 8, 5, 2, 7]","[5, 3, 2, 3, 7, 4]",6,5,1,1,51,VB_FR,1,Value-Based Reward,Middle-Value
333,615,o2ql6etsj,59,38,0,0.8587,experiment_VB,-4,62,2.6,0.8,29,33,4,1,"[6, 5, 2, 4, 4, 8]","[7, 6, 7, 5, 5, 3]",5,4,1,1,52,VB_FR,1,Value-Based Reward,High-Value
334,616,o2ql6etsj,60,38,1,1.9219,experiment_VB,5,55,2.6,0.8,30,25,5,1,"[2, 5, 8, 3, 8, 4]","[2, 5, 2, 8, 5, 3]",5,4,1,1,53,VB_FR,1,Value-Based Reward,Middle-Value
335,617,o2ql6etsj,61,38,1,1.4018,experiment_VB,5,61,2.6,0.8,33,28,5,1,"[5, 6, 7, 5, 6, 4]","[4, 3, 2, 8, 4, 7]",4,5,-1,1,54,VB_FR,1,Value-Based Reward,High-Value
336,618,o2ql6etsj,62,38,0,1.1151,experiment_VB,-3,61,2.6,0.8,29,32,3,1,"[7, 6, 3, 4, 3, 6]","[8, 8, 7, 1, 3, 5]",4,5,-1,1,55,VB_FR,1,Value-Based Reward,High-Value
337,619,o2ql6etsj,63,38,0,1.2862,experiment_VB,-5,41,2.6,0.8,18,23,5,1,"[3, 1, 7, 1, 1, 5]","[6, 7, 1, 4, 4, 1]",4,4,0,0,56,VB_FR,0,Value-Based Reward,Low-Value
338,620,o2ql6etsj,64,38,0,0.7107,experiment_VB,-13,63,2.6,0.8,25,38,13,1,"[3, 7, 7, 3, 3, 2]","[6, 8, 3, 7, 8, 6]",3,4,-1,1,57,VB_FR,1,Value-Based Reward,High-Value
339,621,o2ql6etsj,65,38,0,0.9756,experiment_VB,-6,58,2.6,0.8,26,32,6,1,"[2, 1, 6, 3, 6, 8]","[4, 5, 6, 7, 8, 2]",5,6,-1,1,58,VB_FR,1,Value-Based Reward,Middle-Value
340,622,o2ql6etsj,66,38,1,0.9252,experiment_VB,7,37,2.6,0.8,22,15,7,1,"[1, 3, 6, 2, 3, 7]","[3, 2, 3, 1, 1, 5]",5,4,1,1,59,VB_FR,1,Value-Based Reward,Low-Value
341,623,o2ql6etsj,67,38,1,1.0862,experiment_VB,2,54,2.6,0.8,28,26,2,1,"[6, 8, 2, 7, 1, 4]","[6, 3, 3, 1, 8, 5]",6,5,1,1,60,VB_FR,1,Value-Based Reward,Middle-Value
342,624,o2ql6etsj,68,38,1,1.4697,experiment_VB,4,66,2.6,0.8,35,31,4,1,"[8, 7, 2, 7, 3, 8]","[8, 3, 1, 4, 8, 7]",4,5,-1,1,61,VB_FR,1,Value-Based Reward,High-Value
343,625,o2ql6etsj,69,38,0,1.1369,experiment_VB,1,37,2.6,0.8,19,18,1,0,"[2, 1, 4, 4, 1, 7]","[2, 6, 1, 1, 7, 1]",4,4,0,0,62,VB_FR,0,Value-Based Reward,Low-Value
344,626,o2ql6etsj,70,38,1,1.6515,experiment_VB,11,51,2.6,0.8,31,20,11,1,"[6, 4, 6, 3, 4, 8]","[1, 8, 1, 4, 4, 2]",4,4,0,0,63,VB_FR,0,Value-Based Reward,Middle-Value
345,627,o2ql6etsj,71,38,0,0.7033,experiment_VB,-3,65,2.6,0.8,31,34,3,1,"[8, 2, 8, 4, 3, 6]","[2, 8, 8, 7, 8, 1]",5,4,1,1,64,VB_FR,1,Value-Based Reward,High-Value
346,628,o2ql6etsj,72,38,1,1.1984,experiment_VB,1,59,2.6,0.8,30,29,1,1,"[3, 5, 1, 7, 6, 8]","[3, 2, 6, 8, 8, 2]",6,4,2,2,65,VB_FR,2,Value-Based Reward,Middle-Value
347,629,o2ql6etsj,73,38,0,0.7929,experiment_VB,-11,53,2.6,0.8,21,32,11,1,"[4, 1, 1, 8, 2, 5]","[2, 3, 7, 6, 8, 6]",5,5,0,0,66,VB_FR,0,Value-Based Reward,Middle-Value
348,630,o2ql6etsj,74,38,1,1.9092,experiment_VB,1,53,2.6,0.8,27,26,1,1,"[6, 1, 4, 8, 2, 6]","[3, 3, 2, 8, 3, 7]",5,4,1,1,67,VB_FR,1,Value-Based Reward,Middle-Value
349,631,o2ql6etsj,75,38,1,0.7698,experiment_VB,11,59,2.6,0.8,35,24,11,1,"[8, 5, 8, 8, 3, 3]","[5, 8, 2, 1, 3, 5]",3,5,-2,2,68,VB_FR,2,Value-Based Reward,Middle-Value
350,632,o2ql6etsj,76,38,0,1.72,experiment_VB,-7,37,2.6,0.8,15,22,7,1,"[7, 1, 3, 1, 1, 2]","[6, 2, 1, 4, 1, 8]",4,5,-1,1,69,VB_FR,1,Value-Based Reward,Low-Value
351,633,o2ql6etsj,77,38,1,0.68,experiment_VB,0,52,2.6,0.8,26,26,0,0,"[6, 1, 2, 8, 8, 1]","[8, 4, 3, 4, 2, 5]",4,5,-1,1,70,VB_FR,1,Value-Based Reward,Middle-Value
352,634,o2ql6etsj,78,38,1,0.8128,experiment_VB,9,37,2.6,0.8,23,14,9,1,"[8, 1, 1, 8, 4, 1]","[1, 1, 2, 1, 6, 3]",3,4,-1,1,71,VB_FR,1,Value-Based Reward,Low-Value
353,635,o2ql6etsj,79,38,1,1.9369,experiment_VB,3,53,2.6,0.8,28,25,3,1,"[4, 8, 2, 2, 7, 5]","[6, 3, 2, 2, 6, 6]",5,3,2,2,72,VB_FR,2,Value-Based Reward,Middle-Value
354,636,o2ql6etsj,80,38,0,1.5701,experiment_VB,-1,55,2.6,0.8,27,28,1,1,"[7, 1, 8, 1, 4, 6]","[8, 3, 2, 8, 2, 5]",5,4,1,1,73,VB_FR,1,Value-Based Reward,Middle-Value
355,637,o2ql6etsj,81,38,0,0.9502,experiment_VB,-13,47,2.6,0.8,17,30,13,1,"[4, 1, 5, 1, 2, 4]","[7, 2, 6, 4, 5, 6]",4,5,-1,1,74,VB_FR,1,Value-Based Reward,Low-Value
356,638,o2ql6etsj,82,38,1,0.7366,experiment_VB,13,55,2.6,0.8,34,21,13,1,"[4, 6, 8, 8, 4, 4]","[3, 5, 3, 6, 2, 2]",3,4,-1,1,75,VB_FR,1,Value-Based Reward,Middle-Value
357,639,o2ql6etsj,83,38,0,0.7141,experiment_VB,2,38,2.6,0.8,20,18,2,0,"[4, 5, 4, 3, 2, 2]","[3, 1, 8, 3, 1, 2]",4,4,0,0,76,VB_FR,0,Value-Based Reward,Low-Value
358,640,o2ql6etsj,84,38,0,3.6583,experiment_VB,-6,54,2.6,0.8,24,30,6,1,"[3, 2, 7, 1, 6, 5]","[4, 8, 4, 4, 6, 4]",6,3,3,3,77,VB_FR,3,Value-Based Reward,Middle-Value
359,641,o2ql6etsj,85,38,1,0.8689,experiment_VB,3,43,2.6,0.8,23,20,3,1,"[4, 2, 1, 1, 8, 7]","[2, 4, 2, 4, 6, 2]",5,3,2,2,78,VB_FR,2,Value-Based Reward,Low-Value
360,642,o2ql6etsj,86,38,1,0.9901,experiment_VB,11,59,2.6,0.8,35,24,11,1,"[8, 5, 3, 3, 8, 8]","[3, 3, 5, 2, 7, 4]",3,5,-2,2,79,VB_FR,2,Value-Based Reward,Middle-Value
361,643,o2ql6etsj,87,38,0,0.8348,experiment_VB,-4,62,2.6,0.8,29,33,4,1,"[6, 7, 1, 5, 4, 6]","[7, 6, 3, 8, 6, 3]",5,4,1,1,80,VB_FR,1,Value-Based Reward,High-Value
362,644,o2ql6etsj,88,38,1,2.1416,experiment_VB,3,47,2.6,0.8,25,22,3,1,"[5, 8, 3, 1, 6, 2]","[4, 3, 5, 2, 6, 2]",6,5,1,1,81,VB_FR,1,Value-Based Reward,Low-Value
363,645,o2ql6etsj,89,38,0,0.6991,experiment_VB,-10,58,2.6,0.8,24,34,10,1,"[4, 5, 2, 1, 6, 6]","[8, 6, 6, 2, 6, 6]",5,3,2,2,82,VB_FR,2,Value-Based Reward,Middle-Value
364,646,o2ql6etsj,90,38,0,1.4465,experiment_VB,-5,59,2.6,0.8,27,32,5,1,"[2, 8, 7, 3, 3, 4]","[8, 2, 3, 3, 8, 8]",5,3,2,2,83,VB_FR,2,Value-Based Reward,Middle-Value
365,647,o2ql6etsj,91,38,0,1.0898,experiment_VB,-6,46,2.6,0.8,20,26,6,1,"[3, 3, 1, 6, 1, 6]","[1, 8, 4, 6, 1, 6]",3,4,-1,1,84,VB_FR,1,Value-Based Reward,Low-Value
366,648,o2ql6etsj,92,38,0,1.2119,experiment_VB,-4,56,2.6,0.8,26,30,4,1,"[4, 6, 2, 4, 3, 7]","[6, 5, 7, 4, 1, 7]",5,5,0,0,85,VB_FR,0,Value-Based Reward,Middle-Value
367,649,o2ql6etsj,93,38,0,0.7902,experiment_VB,-5,55,2.6,0.8,25,30,5,1,"[3, 6, 2, 8, 3, 3]","[6, 6, 8, 1, 6, 3]",4,4,0,0,86,VB_FR,0,Value-Based Reward,Middle-Value
368,650,o2ql6etsj,94,38,1,0.5564,experiment_VB,17,57,2.6,0.8,37,20,17,1,"[7, 7, 1, 7, 7, 8]","[3, 8, 1, 3, 2, 3]",3,4,-1,1,87,VB_FR,1,Value-Based Reward,Middle-Value
369,651,o2ql6etsj,95,38,1,1.7577,experiment_VB,-5,45,2.6,0.8,20,25,5,0,"[1, 1, 5, 6, 5, 2]","[1, 4, 3, 4, 8, 5]",4,5,-1,1,88,VB_FR,1,Value-Based Reward,Low-Value
370,652,o2ql6etsj,96,38,1,0.7908,experiment_VB,3,53,2.6,0.8,28,25,3,1,"[6, 5, 5, 1, 8, 3]","[3, 3, 4, 4, 7, 4]",5,3,2,2,89,VB_FR,2,Value-Based Reward,Middle-Value
371,653,o2ql6etsj,97,38,0,0.5933,experiment_VB,-14,50,2.6,0.8,18,32,14,1,"[5, 4, 2, 2, 1, 4]","[6, 7, 6, 1, 4, 8]",4,5,-1,1,90,VB_FR,1,Value-Based Reward,Middle-Value
372,654,o2ql6etsj,98,38,0,1.3906,experiment_VB,-5,41,2.6,0.8,18,23,5,1,"[7, 3, 1, 4, 2, 1]","[3, 5, 7, 1, 3, 4]",5,5,0,0,91,VB_FR,0,Value-Based Reward,Low-Value
373,655,o2ql6etsj,99,38,1,3.4895,experiment_VB,6,48,2.6,0.8,27,21,6,1,"[8, 2, 3, 5, 2, 7]","[2, 1, 1, 4, 7, 6]",5,5,0,0,92,VB_FR,0,Value-Based Reward,Middle-Value
374,656,o2ql6etsj,100,38,0,3.0077,experiment_VB,-4,42,2.6,0.8,19,23,4,1,"[5, 1, 2, 8, 1, 2]","[8, 3, 4, 3, 4, 1]",4,4,0,0,93,VB_FR,0,Value-Based Reward,Low-Value
375,657,o2ql6etsj,101,38,1,2.2685,experiment_VB,10,44,2.6,0.8,27,17,10,1,"[7, 2, 4, 4, 4, 6]","[2, 3, 6, 4, 1, 1]",4,5,-1,1,94,VB_FR,1,Value-Based Reward,Low-Value
376,658,o2ql6etsj,102,38,0,0.9125,experiment_VB,-8,54,2.6,0.8,23,31,8,1,"[1, 2, 5, 8, 6, 1]","[4, 7, 7, 4, 3, 6]",5,4,1,1,95,VB_FR,1,Value-Based Reward,Middle-Value
377,659,o2ql6etsj,103,38,1,0.6279,experiment_VB,11,57,2.6,0.8,34,23,11,1,"[3, 7, 8, 7, 2, 7]","[1, 2, 7, 7, 4, 2]",4,4,0,0,96,VB_FR,0,Value-Based Reward,Middle-Value
378,660,o2ql6etsj,104,38,0,1.0324,experiment_VB,0,48,2.6,0.8,24,24,0,1,"[3, 3, 2, 4, 4, 8]","[6, 1, 4, 2, 8, 3]",4,6,-2,2,97,VB_FR,2,Value-Based Reward,Middle-Value
379,661,o2ql6etsj,105,38,0,0.8241,experiment_VB,-9,55,2.6,0.8,23,32,9,1,"[8, 1, 2, 6, 4, 2]","[1, 2, 6, 8, 8, 7]",5,5,0,0,98,VB_FR,0,Value-Based Reward,Middle-Value
380,662,o2ql6etsj,106,38,0,0.6748,experiment_VB,-11,59,2.6,0.8,24,35,11,1,"[6, 2, 3, 2, 3, 8]","[6, 7, 7, 2, 5, 8]",4,5,-1,1,99,VB_FR,1,Value-Based Reward,Middle-Value
381,663,o2ql6etsj,108,38,0,0.7117,experiment_VB,-6,54,2.6,0.8,24,30,6,1,"[6, 2, 3, 5, 7, 1]","[7, 7, 7, 5, 1, 3]",6,4,2,2,100,VB_FR,2,Value-Based Reward,Middle-Value
382,664,o2ql6etsj,109,38,0,1.053,experiment_VB,-7,55,2.6,0.8,24,31,7,1,"[3, 4, 2, 3, 4, 8]","[4, 6, 3, 8, 3, 7]",4,5,-1,1,101,VB_FR,1,Value-Based Reward,Middle-Value
383,665,o2ql6etsj,110,38,1,3.7586,experiment_VB,4,64,2.6,0.8,34,30,4,1,"[3, 8, 7, 4, 5, 7]","[5, 5, 4, 1, 8, 7]",5,5,0,0,102,VB_FR,0,Value-Based Reward,High-Value
384,666,o2ql6etsj,111,38,0,0.7779,experiment_VB,1,53,2.6,0.8,27,26,1,0,"[3, 3, 3, 3, 7, 8]","[5, 7, 6, 1, 1, 6]",3,4,-1,1,103,VB_FR,1,Value-Based Reward,Middle-Value
385,667,o2ql6etsj,112,38,1,0.9525,experiment_VB,18,46,2.6,0.8,32,14,18,1,"[8, 3, 2, 7, 8, 4]","[4, 3, 3, 1, 1, 2]",5,4,1,1,104,VB_FR,1,Value-Based Reward,Low-Value
386,668,o2ql6etsj,113,38,1,2.642,experiment_VB,6,50,2.6,0.8,28,22,6,1,"[4, 4, 3, 5, 5, 7]","[3, 3, 2, 7, 3, 4]",4,4,0,0,105,VB_FR,0,Value-Based Reward,Middle-Value
387,669,o2ql6etsj,114,38,0,1.184,experiment_VB,-5,55,2.6,0.8,25,30,5,1,"[4, 6, 3, 2, 2, 8]","[4, 1, 6, 6, 5, 8]",5,5,0,0,106,VB_FR,0,Value-Based Reward,Middle-Value
388,670,o2ql6etsj,115,38,0,0.8725,experiment_VB,-7,49,2.6,0.8,21,28,7,1,"[8, 3, 2, 4, 1, 3]","[2, 4, 8, 5, 1, 8]",5,5,0,0,107,VB_FR,0,Value-Based Reward,Middle-Value
389,671,o2ql6etsj,116,38,0,0.7409,experiment_VB,-8,50,2.6,0.8,21,29,8,1,"[8, 4, 1, 2, 3, 3]","[8, 5, 3, 7, 5, 1]",5,5,0,0,108,VB_FR,0,Value-Based Reward,Middle-Value
390,672,o2ql6etsj,117,38,1,2.3169,experiment_VB,5,43,2.6,0.8,24,19,5,1,"[2, 4, 3, 6, 5, 4]","[1, 6, 5, 4, 2, 1]",5,5,0,0,109,VB_FR,0,Value-Based Reward,Low-Value
391,673,o2ql6etsj,118,38,1,0.749,experiment_VB,18,38,2.6,0.8,28,10,18,1,"[1, 1, 6, 7, 8, 5]","[1, 1, 1, 3, 3, 1]",5,2,3,3,110,VB_FR,3,Value-Based Reward,Low-Value
392,674,o2ql6etsj,119,38,1,2.2738,experiment_VB,-4,64,2.6,0.8,30,34,4,0,"[2, 8, 7, 7, 5, 1]","[6, 8, 8, 3, 4, 5]",5,5,0,0,111,VB_FR,0,Value-Based Reward,High-Value
393,675,o2ql6etsj,120,38,1,2.5374,experiment_VB,6,56,2.6,0.8,31,25,6,1,"[4, 5, 8, 5, 1, 8]","[1, 4, 8, 4, 7, 1]",4,4,0,0,112,VB_FR,0,Value-Based Reward,Middle-Value
394,676,o2ql6etsj,121,38,1,2.3798,experiment_VB,1,73,2.6,0.8,37,36,1,1,"[3, 8, 6, 5, 8, 7]","[4, 7, 7, 2, 8, 8]",5,4,1,1,113,VB_FR,1,Value-Based Reward,High-Value
395,677,o2ql6etsj,122,38,1,1.5715,experiment_VB,3,57,2.6,0.8,30,27,3,1,"[1, 5, 7, 8, 4, 5]","[4, 4, 8, 7, 2, 2]",5,4,1,1,114,VB_FR,1,Value-Based Reward,Middle-Value
396,678,o2ql6etsj,123,38,0,3.1206,experiment_VB,-10,48,2.6,0.8,19,29,10,1,"[2, 5, 4, 2, 5, 1]","[6, 7, 3, 6, 5, 2]",4,5,-1,1,115,VB_FR,1,Value-Based Reward,Middle-Value
397,679,o2ql6etsj,124,38,0,1.2776,experiment_VB,-8,50,2.6,0.8,21,29,8,1,"[4, 3, 3, 1, 7, 3]","[8, 5, 5, 4, 6, 1]",4,5,-1,1,116,VB_FR,1,Value-Based Reward,Middle-Value
398,680,o2ql6etsj,125,38,0,1.0094,experiment_VB,-8,50,2.6,0.8,21,29,8,1,"[1, 2, 6, 8, 2, 2]","[4, 8, 4, 5, 5, 3]",4,4,0,0,117,VB_FR,0,Value-Based Reward,Middle-Value
399,681,o2ql6etsj,126,38,1,0.9439,experiment_VB,3,65,2.6,0.8,34,31,3,1,"[7, 6, 2, 7, 6, 6]","[8, 2, 6, 5, 8, 2]",3,4,-1,1,118,VB_FR,1,Value-Based Reward,High-Value
400,682,o2ql6etsj,127,38,0,3.0863,experiment_VB,-8,52,2.6,0.8,22,30,8,1,"[6, 4, 4, 1, 1, 6]","[3, 3, 8, 4, 4, 8]",3,3,0,0,119,VB_FR,0,Value-Based Reward,Middle-Value
401,683,o2ql6etsj,128,38,1,0.7671,experiment_VB,26,62,2.6,0.8,44,18,26,1,"[8, 8, 7, 7, 7, 7]","[6, 1, 3, 1, 2, 5]",2,5,-3,3,120,VB_FR,3,Value-Based Reward,High-Value
402,684,o2ql6etsj,129,38,0,0.6133,experiment_VB,-8,52,2.6,0.8,22,30,8,1,"[5, 1, 2, 4, 7, 3]","[6, 4, 1, 8, 7, 4]",6,5,1,1,121,VB_FR,1,Value-Based Reward,Middle-Value
403,685,o2ql6etsj,130,38,0,0.5729,experiment_VB,-9,53,2.6,0.8,22,31,9,1,"[3, 2, 6, 4, 5, 2]","[5, 7, 2, 8, 1, 8]",5,5,0,0,122,VB_FR,0,Value-Based Reward,Middle-Value
404,686,o2ql6etsj,131,38,1,1.1815,experiment_VB,6,54,2.6,0.8,30,24,6,1,"[5, 1, 2, 8, 7, 7]","[1, 7, 4, 7, 3, 2]",5,5,0,0,123,VB_FR,0,Value-Based Reward,Middle-Value
405,687,o2ql6etsj,132,38,0,1.088,experiment_VB,2,40,2.6,0.8,21,19,2,0,"[4, 3, 2, 4, 7, 1]","[6, 4, 2, 3, 1, 3]",5,5,0,0,124,VB_FR,0,Value-Based Reward,Low-Value
406,688,o2ql6etsj,133,38,1,1.3099,experiment_VB,9,37,2.6,0.8,23,14,9,1,"[3, 3, 2, 3, 4, 8]","[1, 1, 2, 2, 4, 4]",4,3,1,1,125,VB_FR,1,Value-Based Reward,Low-Value
407,689,o2ql6etsj,134,38,1,1.0838,experiment_VB,4,56,2.6,0.8,30,26,4,1,"[1, 5, 7, 3, 8, 6]","[3, 6, 7, 3, 5, 2]",6,5,1,1,126,VB_FR,1,Value-Based Reward,Middle-Value
408,690,o2ql6etsj,135,38,1,3.0684,experiment_VB,10,52,2.6,0.8,31,21,10,1,"[8, 4, 5, 2, 5, 7]","[6, 1, 2, 7, 4, 1]",5,5,0,0,127,VB_FR,0,Value-Based Reward,Middle-Value
409,691,o2ql6etsj,136,38,0,1.1854,experiment_VB,-4,66,2.6,0.8,31,35,4,1,"[6, 1, 8, 8, 6, 2]","[6, 7, 8, 6, 3, 5]",4,5,-1,1,128,VB_FR,1,Value-Based Reward,High-Value
410,692,o2ql6etsj,137,38,1,1.3319,experiment_VB,13,57,2.6,0.8,35,22,13,1,"[2, 8, 6, 8, 3, 8]","[7, 1, 5, 1, 1, 7]",4,3,1,1,129,VB_FR,1,Value-Based Reward,Middle-Value
411,693,o2ql6etsj,138,38,0,0.9062,experiment_VB,-10,54,2.6,0.8,22,32,10,1,"[7, 1, 2, 6, 3, 3]","[3, 8, 2, 6, 8, 5]",5,5,0,0,130,VB_FR,0,Value-Based Reward,Middle-Value
412,694,o2ql6etsj,139,38,1,2.8507,experiment_VB,4,52,2.6,0.8,28,24,4,1,"[6, 3, 8, 1, 4, 6]","[5, 4, 1, 5, 8, 1]",5,4,1,1,131,VB_FR,1,Value-Based Reward,Middle-Value
413,695,o2ql6etsj,140,38,1,0.71,experiment_VB,5,59,2.6,0.8,32,27,5,1,"[8, 7, 2, 3, 4, 8]","[8, 6, 5, 2, 1, 5]",5,5,0,0,132,VB_FR,0,Value-Based Reward,Middle-Value
414,696,o2ql6etsj,143,38,0,1.41,experiment_VB,-2,60,2.6,0.8,29,31,2,1,"[5, 4, 3, 3, 8, 6]","[6, 7, 3, 3, 4, 8]",5,5,0,0,133,VB_FR,0,Value-Based Reward,High-Value
415,697,o2ql6etsj,144,38,1,0.7189,experiment_VB,13,49,2.6,0.8,31,18,13,1,"[2, 4, 8, 2, 7, 8]","[3, 8, 1, 1, 4, 1]",4,4,0,0,134,VB_FR,0,Value-Based Reward,Middle-Value
416,698,o2ql6etsj,145,38,0,0.8153,experiment_VB,1,57,2.6,0.8,29,28,1,0,"[4, 4, 8, 4, 4, 5]","[8, 7, 3, 2, 1, 7]",3,5,-2,2,135,VB_FR,2,Value-Based Reward,Middle-Value
417,699,o2ql6etsj,146,38,0,1.3321,experiment_VB,-6,60,2.6,0.8,27,33,6,1,"[6, 7, 2, 2, 5, 5]","[8, 5, 4, 2, 8, 6]",4,5,-1,1,136,VB_FR,1,Value-Based Reward,High-Value
418,700,o2ql6etsj,147,38,0,0.7724,experiment_VB,-4,46,2.6,0.8,21,25,4,1,"[2, 2, 4, 3, 2, 8]","[5, 1, 7, 2, 8, 2]",4,5,-1,1,137,VB_FR,1,Value-Based Reward,Low-Value
419,701,o2ql6etsj,148,38,0,1.0465,experiment_VB,-13,43,2.6,0.8,15,28,13,1,"[3, 3, 1, 2, 1, 5]","[3, 3, 8, 4, 4, 6]",4,4,0,0,138,VB_FR,0,Value-Based Reward,Low-Value
420,702,o2ql6etsj,149,38,1,1.1422,experiment_VB,-1,59,2.6,0.8,29,30,1,0,"[5, 2, 2, 8, 7, 5]","[3, 3, 8, 8, 4, 4]",4,3,1,1,139,VB_FR,1,Value-Based Reward,Middle-Value
421,703,o2ql6etsj,150,38,1,1.2892,experiment_VB,1,47,2.6,0.8,24,23,1,1,"[1, 4, 4, 5, 2, 8]","[5, 2, 3, 6, 1, 6]",5,5,0,0,140,VB_FR,0,Value-Based Reward,Low-Value
422,841,g9aul727y,1,22,1,1.1023,experiment_VB,13,63,8,0.7,38,25,13,1,"[7, 6, 8, 3, 8, 6]","[3, 3, 7, 2, 7, 3]",4,3,1,1,1,VB_FR,1,Value-Based Reward,High-Value
423,842,g9aul727y,3,22,1,3.2535,experiment_VB,4,52,8,0.7,28,24,4,1,"[1, 6, 8, 4, 3, 6]","[1, 5, 1, 4, 8, 5]",5,4,1,1,2,VB_FR,1,Value-Based Reward,Middle-Value
424,843,g9aul727y,4,22,1,1.9871,experiment_VB,8,50,8,0.7,29,21,8,1,"[3, 8, 5, 7, 1, 5]","[1, 2, 8, 1, 3, 6]",5,5,0,0,3,VB_FR,0,Value-Based Reward,Middle-Value
425,844,g9aul727y,6,22,0,2.3974,experiment_VB,-5,45,8,0.7,20,25,5,1,"[5, 1, 2, 6, 1, 5]","[1, 4, 4, 3, 8, 5]",4,5,-1,1,4,VB_FR,1,Value-Based Reward,Low-Value
426,845,g9aul727y,7,22,0,1.688,experiment_VB,-4,42,8,0.7,19,23,4,1,"[5, 1, 1, 2, 2, 8]","[4, 4, 3, 8, 3, 1]",4,4,0,0,5,VB_FR,0,Value-Based Reward,Low-Value
427,846,g9aul727y,8,22,1,1.1097,experiment_VB,17,57,8,0.7,37,20,17,1,"[7, 7, 8, 7, 1, 7]","[2, 3, 3, 3, 8, 1]",3,4,-1,1,6,VB_FR,1,Value-Based Reward,Middle-Value
428,847,g9aul727y,9,22,0,3.4644,experiment_VB,-9,37,8,0.7,14,23,9,1,"[2, 2, 4, 1, 1, 4]","[2, 3, 4, 3, 3, 8]",3,4,-1,1,7,VB_FR,1,Value-Based Reward,Low-Value
429,848,g9aul727y,10,22,0,1.7834,experiment_VB,-6,60,8,0.7,27,33,6,1,"[8, 3, 6, 1, 1, 8]","[3, 1, 7, 8, 8, 6]",4,5,-1,1,8,VB_FR,1,Value-Based Reward,High-Value
430,849,g9aul727y,12,22,1,1.9489,experiment_VB,4,64,8,0.7,34,30,4,1,"[4, 8, 3, 6, 5, 8]","[7, 7, 8, 2, 1, 5]",5,5,0,0,9,VB_FR,0,Value-Based Reward,High-Value
431,850,g9aul727y,13,22,0,4.9902,experiment_VB,-10,60,8,0.7,25,35,10,1,"[3, 2, 3, 7, 7, 3]","[8, 7, 8, 4, 2, 6]",3,5,-2,2,10,VB_FR,2,Value-Based Reward,High-Value
432,851,g9aul727y,14,22,1,4.7849,experiment_VB,3,27,8,0.7,15,12,3,1,"[6, 1, 2, 2, 2, 2]","[2, 1, 1, 4, 2, 2]",3,3,0,0,11,VB_FR,0,Value-Based Reward,Low-Value
433,852,g9aul727y,15,22,1,1.3757,experiment_VB,5,55,8,0.7,30,25,5,1,"[3, 8, 5, 2, 8, 4]","[5, 2, 3, 2, 8, 5]",5,4,1,1,12,VB_FR,1,Value-Based Reward,Middle-Value
434,853,g9aul727y,16,22,0,4.7083,experiment_VB,-4,56,8,0.7,26,30,4,1,"[2, 3, 8, 6, 6, 1]","[4, 2, 2, 7, 7, 8]",5,4,1,1,13,VB_FR,1,Value-Based Reward,Middle-Value
435,854,g9aul727y,18,22,1,3.8985,experiment_VB,3,43,8,0.7,23,20,3,1,"[7, 1, 8, 4, 2, 1]","[2, 4, 4, 2, 6, 2]",5,3,2,2,14,VB_FR,2,Value-Based Reward,Low-Value
436,855,g9aul727y,19,22,1,1.2603,experiment_VB,7,49,8,0.7,28,21,7,1,"[1, 8, 4, 5, 8, 2]","[2, 1, 3, 3, 4, 8]",5,5,0,0,15,VB_FR,0,Value-Based Reward,Middle-Value
437,856,g9aul727y,20,22,0,1.241,experiment_VB,-9,49,8,0.7,20,29,9,1,"[3, 3, 6, 4, 1, 3]","[5, 8, 2, 1, 7, 6]",4,6,-2,2,16,VB_FR,2,Value-Based Reward,Middle-Value
438,857,g9aul727y,21,22,0,1.974,experiment_VB,1,49,8,0.7,25,24,1,0,"[2, 4, 5, 6, 7, 1]","[4, 7, 5, 2, 1, 5]",6,5,1,1,17,VB_FR,1,Value-Based Reward,Middle-Value
439,858,g9aul727y,22,22,1,1.0942,experiment_VB,18,38,8,0.7,28,10,18,1,"[1, 5, 8, 6, 7, 1]","[1, 1, 3, 1, 3, 1]",5,2,3,3,18,VB_FR,3,Value-Based Reward,Low-Value
440,859,g9aul727y,23,22,0,2.9818,experiment_VB,-2,38,8,0.7,18,20,2,1,"[3, 3, 2, 1, 1, 8]","[4, 5, 2, 3, 4, 2]",4,4,0,0,19,VB_FR,0,Value-Based Reward,Low-Value
441,860,g9aul727y,25,22,0,1.2554,experiment_VB,3,61,8,0.7,32,29,3,0,"[5, 7, 7, 2, 4, 7]","[8, 2, 7, 8, 3, 1]",4,5,-1,1,20,VB_FR,1,Value-Based Reward,High-Value
442,861,g9aul727y,26,22,1,1.2022,experiment_VB,4,46,8,0.7,25,21,4,1,"[1, 2, 8, 7, 5, 2]","[2, 3, 2, 8, 4, 2]",5,4,1,1,21,VB_FR,1,Value-Based Reward,Low-Value
443,862,g9aul727y,27,22,1,1.0605,experiment_VB,13,59,8,0.7,36,23,13,1,"[4, 2, 8, 7, 8, 7]","[2, 2, 7, 5, 3, 4]",4,5,-1,1,22,VB_FR,1,Value-Based Reward,High-Value
444,863,g9aul727y,28,22,1,1.7147,experiment_VB,6,46,8,0.7,26,20,6,1,"[6, 6, 1, 1, 8, 4]","[6, 1, 3, 6, 3, 1]",4,3,1,1,23,VB_FR,1,Value-Based Reward,Low-Value
445,864,g9aul727y,29,22,1,1.2029,experiment_VB,17,45,8,0.7,31,14,17,1,"[7, 5, 1, 6, 6, 6]","[1, 1, 1, 5, 3, 3]",4,3,1,1,24,VB_FR,1,Value-Based Reward,Low-Value
446,865,g9aul727y,30,22,1,1.935,experiment_VB,8,50,8,0.7,29,21,8,1,"[7, 5, 8, 1, 5, 3]","[4, 8, 1, 3, 2, 3]",5,5,0,0,25,VB_FR,0,Value-Based Reward,Middle-Value
447,866,g9aul727y,31,22,0,1.2147,experiment_VB,-10,48,8,0.7,19,29,10,1,"[1, 2, 2, 5, 5, 4]","[7, 3, 6, 5, 6, 2]",4,5,-1,1,26,VB_FR,1,Value-Based Reward,Middle-Value
448,867,g9aul727y,32,22,1,0.9583,experiment_VB,3,53,8,0.7,28,25,3,1,"[4, 7, 2, 5, 2, 8]","[3, 2, 6, 6, 2, 6]",5,3,2,2,27,VB_FR,2,Value-Based Reward,Middle-Value
449,868,g9aul727y,33,22,0,1.2761,experiment_VB,5,61,8,0.7,33,28,5,0,"[5, 4, 6, 7, 6, 5]","[2, 4, 4, 7, 3, 8]",4,5,-1,1,28,VB_FR,1,Value-Based Reward,High-Value
450,869,g9aul727y,34,22,0,1.8261,experiment_VB,-14,44,8,0.7,15,29,14,1,"[3, 1, 2, 1, 2, 6]","[7, 2, 6, 3, 4, 7]",4,5,-1,1,29,VB_FR,1,Value-Based Reward,Low-Value
451,870,g9aul727y,35,22,0,3.7598,experiment_VB,0,48,8,0.7,24,24,0,1,"[3, 3, 2, 4, 4, 8]","[3, 4, 1, 6, 8, 2]",4,6,-2,2,30,VB_FR,2,Value-Based Reward,Middle-Value
452,871,g9aul727y,36,22,0,2.7736,experiment_VB,-7,37,8,0.7,15,22,7,1,"[3, 1, 2, 1, 7, 1]","[4, 8, 1, 1, 6, 2]",4,5,-1,1,31,VB_FR,1,Value-Based Reward,Low-Value
453,872,g9aul727y,37,22,1,2.4299,experiment_VB,8,54,8,0.7,31,23,8,1,"[5, 5, 8, 8, 4, 1]","[8, 1, 1, 7, 5, 1]",4,4,0,0,32,VB_FR,0,Value-Based Reward,Middle-Value
454,873,g9aul727y,38,22,0,3.1955,experiment_VB,-7,43,8,0.7,18,25,7,1,"[2, 1, 5, 2, 1, 7]","[2, 5, 5, 1, 5, 7]",4,4,0,0,33,VB_FR,0,Value-Based Reward,Low-Value
455,874,g9aul727y,39,22,0,2.7568,experiment_VB,-4,58,8,0.7,27,31,4,1,"[3, 6, 6, 4, 3, 5]","[2, 6, 7, 4, 4, 8]",4,5,-1,1,34,VB_FR,1,Value-Based Reward,Middle-Value
456,875,g9aul727y,40,22,0,1.7564,experiment_VB,3,61,8,0.7,32,29,3,0,"[4, 8, 8, 1, 6, 5]","[1, 2, 7, 8, 8, 3]",5,5,0,0,35,VB_FR,0,Value-Based Reward,High-Value
457,876,g9aul727y,41,22,1,1.7444,experiment_VB,-1,53,8,0.7,26,27,1,0,"[6, 7, 5, 1, 1, 6]","[3, 7, 3, 3, 8, 3]",4,3,1,1,36,VB_FR,1,Value-Based Reward,Middle-Value
458,877,g9aul727y,42,22,1,1.727,experiment_VB,9,43,8,0.7,26,17,9,1,"[6, 8, 4, 1, 1, 6]","[2, 1, 7, 1, 3, 3]",4,4,0,0,37,VB_FR,0,Value-Based Reward,Low-Value
459,878,g9aul727y,43,22,1,1.8809,experiment_VB,17,61,8,0.7,39,22,17,1,"[5, 8, 8, 3, 7, 8]","[1, 5, 4, 4, 5, 3]",4,4,0,0,38,VB_FR,0,Value-Based Reward,High-Value
460,879,g9aul727y,44,22,1,5.0967,experiment_VB,0,52,8,0.7,26,26,0,0,"[2, 5, 8, 4, 5, 2]","[8, 5, 2, 4, 1, 6]",4,6,-2,2,39,VB_FR,2,Value-Based Reward,Middle-Value
461,880,g9aul727y,45,22,0,4.485,experiment_VB,0,64,8,0.7,32,32,0,1,"[3, 2, 8, 8, 5, 6]","[8, 7, 1, 8, 1, 7]",5,3,2,2,40,VB_FR,2,Value-Based Reward,High-Value
462,881,g9aul727y,46,22,0,1.8945,experiment_VB,-6,64,8,0.7,29,35,6,1,"[1, 2, 7, 8, 8, 3]","[4, 8, 7, 7, 4, 5]",5,4,1,1,41,VB_FR,1,Value-Based Reward,High-Value
463,882,g9aul727y,47,22,1,3.7041,experiment_VB,4,48,8,0.7,26,22,4,1,"[4, 4, 6, 2, 5, 5]","[1, 1, 5, 1, 6, 8]",4,4,0,0,42,VB_FR,0,Value-Based Reward,Middle-Value
464,883,g9aul727y,48,22,1,1.8361,experiment_VB,4,56,8,0.7,30,26,4,1,"[5, 6, 7, 7, 4, 1]","[6, 4, 4, 3, 7, 2]",5,5,0,0,43,VB_FR,0,Value-Based Reward,Middle-Value
465,884,g9aul727y,49,22,1,1.0472,experiment_VB,11,51,8,0.7,31,20,11,1,"[7, 8, 7, 4, 2, 3]","[6, 3, 3, 3, 1, 4]",5,4,1,1,44,VB_FR,1,Value-Based Reward,Middle-Value
466,885,g9aul727y,50,22,0,3.0461,experiment_VB,-6,54,8,0.7,24,30,6,1,"[3, 7, 5, 2, 6, 1]","[4, 6, 4, 4, 8, 4]",6,3,3,3,45,VB_FR,3,Value-Based Reward,Middle-Value
467,886,g9aul727y,51,22,0,3.397,experiment_VB,-8,52,8,0.7,22,30,8,1,"[1, 6, 4, 4, 1, 6]","[4, 3, 8, 4, 3, 8]",3,3,0,0,46,VB_FR,0,Value-Based Reward,Middle-Value
468,887,g9aul727y,52,22,1,1.117,experiment_VB,3,57,8,0.7,30,27,3,1,"[7, 8, 5, 4, 1, 5]","[7, 8, 2, 2, 4, 4]",5,4,1,1,47,VB_FR,1,Value-Based Reward,Middle-Value
469,888,g9aul727y,53,22,1,2.3814,experiment_VB,4,66,8,0.7,35,31,4,1,"[6, 8, 5, 6, 7, 3]","[8, 1, 6, 8, 6, 2]",5,4,1,1,48,VB_FR,1,Value-Based Reward,High-Value
470,889,g9aul727y,54,22,1,2.7924,experiment_VB,1,49,8,0.7,25,24,1,1,"[1, 6, 6, 5, 4, 3]","[3, 7, 4, 2, 2, 6]",5,5,0,0,49,VB_FR,0,Value-Based Reward,Middle-Value
471,890,g9aul727y,55,22,1,1.0416,experiment_VB,18,46,8,0.7,32,14,18,1,"[7, 8, 3, 2, 4, 8]","[3, 1, 1, 3, 2, 4]",5,4,1,1,50,VB_FR,1,Value-Based Reward,Low-Value
472,891,g9aul727y,56,22,1,1.4398,experiment_VB,11,57,8,0.7,34,23,11,1,"[5, 7, 1, 8, 6, 7]","[2, 7, 5, 5, 3, 1]",5,5,0,0,51,VB_FR,0,Value-Based Reward,Middle-Value
473,892,g9aul727y,57,22,0,2.7262,experiment_VB,-3,47,8,0.7,22,25,3,1,"[2, 6, 1, 3, 6, 4]","[3, 2, 4, 8, 5, 3]",5,5,0,0,52,VB_FR,0,Value-Based Reward,Low-Value
474,893,g9aul727y,58,22,0,2.5055,experiment_VB,-5,43,8,0.7,19,24,5,1,"[5, 1, 2, 6, 4, 1]","[3, 4, 2, 4, 5, 6]",5,5,0,0,53,VB_FR,0,Value-Based Reward,Low-Value
475,894,g9aul727y,59,22,0,1.7004,experiment_VB,-5,55,8,0.7,25,30,5,1,"[3, 3, 6, 8, 2, 3]","[6, 6, 1, 6, 3, 8]",4,4,0,0,54,VB_FR,0,Value-Based Reward,Middle-Value
476,895,g9aul727y,60,22,0,5.1277,experiment_VB,-5,57,8,0.7,26,31,5,1,"[1, 8, 4, 8, 2, 3]","[7, 8, 1, 5, 3, 7]",5,5,0,0,55,VB_FR,0,Value-Based Reward,Middle-Value
477,896,g9aul727y,61,22,0,1.0653,experiment_VB,-3,61,8,0.7,29,32,3,1,"[6, 3, 7, 4, 6, 3]","[8, 5, 1, 8, 7, 3]",4,5,-1,1,56,VB_FR,1,Value-Based Reward,High-Value
478,897,g9aul727y,62,22,1,4.2226,experiment_VB,-2,38,8,0.7,18,20,2,0,"[4, 3, 2, 2, 1, 6]","[8, 1, 2, 6, 2, 1]",5,4,1,1,57,VB_FR,1,Value-Based Reward,Low-Value
479,898,g9aul727y,63,22,0,1.7227,experiment_VB,-13,49,8,0.7,18,31,13,1,"[4, 1, 3, 1, 1, 8]","[8, 2, 8, 4, 2, 7]",4,4,0,0,58,VB_FR,0,Value-Based Reward,Middle-Value
480,899,g9aul727y,64,22,1,4.9937,experiment_VB,2,40,8,0.7,21,19,2,1,"[2, 4, 1, 3, 4, 7]","[3, 1, 6, 3, 4, 2]",5,5,0,0,59,VB_FR,0,Value-Based Reward,Low-Value
481,900,g9aul727y,65,22,1,2.0251,experiment_VB,4,66,8,0.7,35,31,4,1,"[7, 3, 8, 7, 8, 2]","[1, 8, 7, 8, 3, 4]",4,5,-1,1,60,VB_FR,1,Value-Based Reward,High-Value
482,901,g9aul727y,67,22,0,1.9044,experiment_VB,-6,50,8,0.7,22,28,6,1,"[4, 2, 3, 3, 7, 3]","[4, 5, 7, 3, 5, 4]",4,4,0,0,61,VB_FR,0,Value-Based Reward,Middle-Value
483,902,g9aul727y,68,22,1,1.7319,experiment_VB,6,44,8,0.7,25,19,6,1,"[1, 2, 7, 7, 7, 1]","[8, 3, 1, 4, 1, 2]",3,5,-2,2,62,VB_FR,2,Value-Based Reward,Low-Value
484,903,g9aul727y,69,22,1,1.9848,experiment_VB,8,46,8,0.7,27,19,8,1,"[7, 2, 4, 7, 2, 5]","[3, 1, 4, 3, 6, 2]",4,5,-1,1,63,VB_FR,1,Value-Based Reward,Low-Value
485,904,g9aul727y,70,22,1,4.2016,experiment_VB,9,51,8,0.7,30,21,9,1,"[6, 5, 3, 7, 3, 6]","[5, 8, 2, 2, 3, 1]",4,5,-1,1,64,VB_FR,1,Value-Based Reward,Middle-Value
486,905,g9aul727y,71,22,0,2.6739,experiment_VB,1,55,8,0.7,28,27,1,0,"[8, 5, 2, 8, 3, 2]","[8, 4, 7, 1, 6, 1]",4,5,-1,1,65,VB_FR,1,Value-Based Reward,Middle-Value
487,906,g9aul727y,72,22,1,3.6913,experiment_VB,1,47,8,0.7,24,23,1,1,"[4, 4, 8, 1, 5, 2]","[1, 2, 6, 6, 3, 5]",5,5,0,0,66,VB_FR,0,Value-Based Reward,Low-Value
488,907,g9aul727y,73,22,0,1.966,experiment_VB,-8,50,8,0.7,21,29,8,1,"[2, 6, 1, 2, 2, 8]","[4, 5, 3, 4, 5, 8]",4,4,0,0,67,VB_FR,0,Value-Based Reward,Middle-Value
489,908,g9aul727y,74,22,1,1.716,experiment_VB,5,41,8,0.7,23,18,5,1,"[4, 3, 5, 1, 3, 7]","[7, 2, 4, 1, 1, 3]",5,5,0,0,68,VB_FR,0,Value-Based Reward,Low-Value
490,909,g9aul727y,75,22,1,2.1787,experiment_VB,4,58,8,0.7,31,27,4,1,"[5, 6, 8, 6, 4, 2]","[1, 4, 5, 5, 4, 8]",5,4,1,1,69,VB_FR,1,Value-Based Reward,Middle-Value
491,910,g9aul727y,76,22,0,2.7359,experiment_VB,0,58,8,0.7,29,29,0,1,"[7, 4, 7, 6, 4, 1]","[1, 6, 4, 8, 3, 7]",4,6,-2,2,70,VB_FR,2,Value-Based Reward,Middle-Value
492,911,g9aul727y,77,22,0,1.4597,experiment_VB,-1,59,8,0.7,29,30,1,1,"[6, 3, 2, 8, 2, 8]","[7, 6, 8, 3, 1, 5]",4,6,-2,2,71,VB_FR,2,Value-Based Reward,High-Value
493,912,g9aul727y,78,22,0,1.388,experiment_VB,-4,62,8,0.7,29,33,4,1,"[8, 2, 4, 5, 4, 6]","[5, 5, 3, 7, 7, 6]",5,4,1,1,72,VB_FR,1,Value-Based Reward,High-Value
494,913,g9aul727y,79,22,1,2.0892,experiment_VB,9,37,8,0.7,23,14,9,1,"[1, 8, 1, 4, 8, 1]","[1, 1, 2, 3, 6, 1]",3,4,-1,1,73,VB_FR,1,Value-Based Reward,Low-Value
495,914,g9aul727y,80,22,1,1.6751,experiment_VB,9,53,8,0.7,31,22,9,1,"[8, 7, 4, 5, 5, 2]","[3, 4, 2, 3, 3, 7]",5,4,1,1,74,VB_FR,1,Value-Based Reward,Middle-Value
496,915,g9aul727y,81,22,1,1.7279,experiment_VB,6,54,8,0.7,30,24,6,1,"[7, 1, 7, 7, 5, 3]","[6, 1, 2, 5, 7, 3]",4,6,-2,2,75,VB_FR,2,Value-Based Reward,Middle-Value
497,916,g9aul727y,82,22,0,0.9421,experiment_VB,-5,43,8,0.7,19,24,5,1,"[1, 1, 4, 4, 2, 7]","[2, 4, 8, 4, 5, 1]",4,5,-1,1,76,VB_FR,1,Value-Based Reward,Low-Value
498,917,g9aul727y,83,22,0,1.3051,experiment_VB,-6,44,8,0.7,19,25,6,1,"[5, 1, 1, 5, 3, 4]","[6, 2, 4, 5, 7, 1]",4,6,-2,2,77,VB_FR,2,Value-Based Reward,Low-Value
499,918,g9aul727y,84,22,0,1.0025,experiment_VB,-1,61,8,0.7,30,31,1,1,"[7, 3, 8, 1, 4, 7]","[7, 8, 6, 2, 4, 4]",5,5,0,0,78,VB_FR,0,Value-Based Reward,High-Value
500,919,g9aul727y,85,22,0,1.0149,experiment_VB,-7,65,8,0.7,29,36,7,1,"[5, 8, 3, 7, 3, 3]","[5, 6, 6, 8, 3, 8]",4,4,0,0,79,VB_FR,0,Value-Based Reward,High-Value
501,920,g9aul727y,86,22,1,1.144,experiment_VB,14,50,8,0.7,32,18,14,1,"[4, 6, 1, 7, 6, 8]","[2, 2, 4, 4, 5, 1]",5,4,1,1,80,VB_FR,1,Value-Based Reward,Middle-Value
502,921,g9aul727y,87,22,0,0.8405,experiment_VB,-5,55,8,0.7,25,30,5,1,"[6, 2, 3, 8, 4, 2]","[6, 4, 8, 1, 5, 6]",5,5,0,0,81,VB_FR,0,Value-Based Reward,Middle-Value
503,922,g9aul727y,88,22,1,0.8227,experiment_VB,10,44,8,0.7,27,17,10,1,"[2, 4, 4, 7, 6, 4]","[6, 3, 4, 1, 2, 1]",4,5,-1,1,82,VB_FR,1,Value-Based Reward,Low-Value
504,923,g9aul727y,89,22,0,1.1939,experiment_VB,-5,59,8,0.7,27,32,5,1,"[5, 2, 1, 8, 6, 5]","[8, 4, 8, 7, 2, 3]",5,5,0,0,83,VB_FR,0,Value-Based Reward,High-Value
505,924,g9aul727y,90,22,1,0.9537,experiment_VB,12,60,8,0.7,36,24,12,1,"[7, 3, 8, 5, 8, 5]","[1, 8, 1, 8, 3, 3]",4,3,1,1,84,VB_FR,1,Value-Based Reward,High-Value
506,925,g9aul727y,91,22,1,0.9752,experiment_VB,8,50,8,0.7,29,21,8,1,"[1, 6, 5, 4, 5, 8]","[7, 3, 3, 1, 4, 3]",5,4,1,1,85,VB_FR,1,Value-Based Reward,Middle-Value
507,926,g9aul727y,92,22,0,2.2033,experiment_VB,-8,54,8,0.7,23,31,8,1,"[6, 1, 2, 1, 8, 5]","[7, 4, 4, 3, 6, 7]",5,4,1,1,86,VB_FR,1,Value-Based Reward,Middle-Value
508,927,g9aul727y,93,22,0,1.8978,experiment_VB,-11,59,8,0.7,24,35,11,1,"[3, 3, 5, 7, 2, 4]","[8, 5, 3, 8, 8, 3]",5,3,2,2,87,VB_FR,2,Value-Based Reward,High-Value
509,928,g9aul727y,94,22,0,1.3526,experiment_VB,-13,57,8,0.7,22,35,13,1,"[7, 5, 7, 1, 1, 1]","[3, 8, 8, 8, 2, 6]",3,4,-1,1,88,VB_FR,1,Value-Based Reward,Middle-Value
510,929,g9aul727y,95,22,1,2.1128,experiment_VB,10,46,8,0.7,28,18,10,1,"[8, 2, 8, 3, 2, 5]","[1, 3, 1, 6, 2, 5]",4,5,-1,1,89,VB_FR,1,Value-Based Reward,Low-Value
511,930,g9aul727y,96,22,0,1.5653,experiment_VB,-7,55,8,0.7,24,31,7,1,"[2, 3, 8, 4, 4, 3]","[8, 7, 3, 6, 4, 3]",4,5,-1,1,90,VB_FR,1,Value-Based Reward,Middle-Value
512,931,g9aul727y,97,22,0,3.4593,experiment_VB,-1,57,8,0.7,28,29,1,1,"[3, 7, 1, 2, 7, 8]","[4, 4, 8, 4, 5, 4]",5,3,2,2,91,VB_FR,2,Value-Based Reward,Middle-Value
513,932,g9aul727y,98,22,0,4.5518,experiment_VB,-7,37,8,0.7,15,22,7,1,"[2, 5, 3, 1, 1, 3]","[1, 2, 3, 7, 3, 6]",4,5,-1,1,92,VB_FR,1,Value-Based Reward,Low-Value
514,933,g9aul727y,99,22,0,3.0061,experiment_VB,-6,48,8,0.7,21,27,6,1,"[1, 1, 6, 7, 2, 4]","[3, 2, 7, 5, 2, 8]",5,5,0,0,93,VB_FR,0,Value-Based Reward,Middle-Value
515,934,g9aul727y,100,22,1,1.8595,experiment_VB,5,41,8,0.7,23,18,5,1,"[7, 4, 1, 1, 4, 6]","[1, 3, 7, 1, 1, 5]",4,4,0,0,94,VB_FR,0,Value-Based Reward,Low-Value
516,935,g9aul727y,101,22,0,0.994,experiment_VB,-10,52,8,0.7,21,31,10,1,"[2, 1, 7, 1, 6, 4]","[8, 7, 5, 5, 2, 4]",5,5,0,0,95,VB_FR,0,Value-Based Reward,Middle-Value
517,936,g9aul727y,102,22,1,1.6296,experiment_VB,6,58,8,0.7,32,26,6,1,"[7, 6, 7, 5, 3, 4]","[1, 3, 8, 7, 5, 2]",5,6,-1,1,96,VB_FR,1,Value-Based Reward,Middle-Value
518,937,g9aul727y,103,22,0,1.0995,experiment_VB,-11,53,8,0.7,21,32,11,1,"[2, 1, 8, 1, 5, 4]","[6, 6, 2, 7, 3, 8]",5,5,0,0,97,VB_FR,0,Value-Based Reward,Middle-Value
519,938,g9aul727y,104,22,1,3.5578,experiment_VB,5,43,8,0.7,24,19,5,1,"[5, 6, 2, 3, 3, 5]","[2, 1, 3, 6, 6, 1]",4,4,0,0,98,VB_FR,0,Value-Based Reward,Low-Value
520,939,g9aul727y,105,22,1,1.276,experiment_VB,6,56,8,0.7,31,25,6,1,"[8, 8, 5, 5, 1, 4]","[1, 4, 4, 8, 1, 7]",4,4,0,0,99,VB_FR,0,Value-Based Reward,Middle-Value
521,940,g9aul727y,106,22,0,1.6578,experiment_VB,-5,53,8,0.7,24,29,5,1,"[7, 2, 3, 4, 3, 5]","[2, 5, 8, 3, 4, 7]",5,6,-1,1,100,VB_FR,1,Value-Based Reward,Middle-Value
522,941,g9aul727y,107,22,1,1.4446,experiment_VB,3,65,8,0.7,34,31,3,1,"[8, 1, 2, 8, 8, 7]","[8, 6, 8, 4, 2, 3]",4,5,-1,1,101,VB_FR,1,Value-Based Reward,High-Value
523,942,g9aul727y,108,22,1,4.878,experiment_VB,0,52,8,0.7,26,26,0,1,"[4, 2, 4, 5, 3, 8]","[1, 8, 8, 6, 1, 2]",5,4,1,1,102,VB_FR,1,Value-Based Reward,Middle-Value
524,943,g9aul727y,109,22,0,0.8573,experiment_VB,-26,62,8,0.7,18,44,26,1,"[6, 5, 1, 3, 1, 2]","[8, 7, 8, 7, 7, 7]",5,2,3,3,103,VB_FR,3,Value-Based Reward,High-Value
525,944,g9aul727y,110,22,1,1.2423,experiment_VB,6,58,8,0.7,32,26,6,1,"[2, 7, 6, 4, 5, 8]","[3, 6, 1, 6, 2, 8]",6,5,1,1,104,VB_FR,1,Value-Based Reward,Middle-Value
526,945,g9aul727y,111,22,1,0.8665,experiment_VB,10,58,8,0.7,34,24,10,1,"[6, 2, 6, 8, 6, 6]","[6, 4, 1, 6, 5, 2]",3,5,-2,2,105,VB_FR,2,Value-Based Reward,Middle-Value
527,946,g9aul727y,112,22,1,2.616,experiment_VB,4,56,8,0.7,30,26,4,1,"[6, 1, 5, 3, 8, 7]","[2, 6, 3, 5, 7, 3]",6,5,1,1,106,VB_FR,1,Value-Based Reward,Middle-Value
528,947,g9aul727y,113,22,0,5.1109,experiment_VB,4,62,8,0.7,33,29,4,0,"[3, 7, 6, 6, 3, 8]","[1, 6, 4, 5, 7, 6]",4,5,-1,1,107,VB_FR,1,Value-Based Reward,High-Value
529,948,g9aul727y,114,22,1,1.7974,experiment_VB,3,53,8,0.7,28,25,3,1,"[3, 2, 6, 2, 8, 7]","[3, 6, 7, 7, 1, 1]",5,4,1,1,108,VB_FR,1,Value-Based Reward,Middle-Value
530,949,g9aul727y,115,22,0,1.7727,experiment_VB,-13,43,8,0.7,15,28,13,1,"[3, 1, 1, 3, 5, 2]","[4, 3, 3, 4, 8, 6]",4,4,0,0,109,VB_FR,0,Value-Based Reward,Low-Value
531,950,g9aul727y,116,22,1,3.8024,experiment_VB,5,55,8,0.7,30,25,5,1,"[2, 7, 7, 7, 1, 6]","[1, 5, 6, 4, 7, 2]",4,6,-2,2,110,VB_FR,2,Value-Based Reward,Middle-Value
532,951,g9aul727y,117,22,0,2.3608,experiment_VB,4,64,8,0.7,34,30,4,0,"[4, 5, 3, 8, 7, 7]","[1, 8, 5, 5, 7, 4]",5,5,0,0,111,VB_FR,0,Value-Based Reward,High-Value
533,952,g9aul727y,118,22,0,1.8562,experiment_VB,-5,39,8,0.7,17,22,5,1,"[2, 1, 1, 7, 1, 5]","[5, 2, 8, 4, 2, 1]",4,5,-1,1,112,VB_FR,1,Value-Based Reward,Low-Value
534,953,g9aul727y,119,22,0,1.212,experiment_VB,-13,55,8,0.7,21,34,13,1,"[3, 2, 5, 6, 2, 3]","[4, 6, 4, 8, 4, 8]",4,3,1,1,113,VB_FR,1,Value-Based Reward,Middle-Value
535,954,g9aul727y,121,22,0,2.3571,experiment_VB,-1,37,8,0.7,18,19,1,1,"[1, 1, 1, 2, 7, 6]","[4, 4, 1, 2, 7, 1]",4,4,0,0,114,VB_FR,0,Value-Based Reward,Low-Value
536,955,g9aul727y,122,22,0,0.8715,experiment_VB,-2,62,8,0.7,30,32,2,1,"[3, 3, 7, 5, 8, 4]","[8, 5, 8, 1, 8, 2]",5,4,1,1,115,VB_FR,1,Value-Based Reward,High-Value
537,956,g9aul727y,123,22,0,2.08,experiment_VB,-11,59,8,0.7,24,35,11,1,"[5, 5, 8, 3, 2, 1]","[5, 8, 8, 8, 3, 3]",5,3,2,2,116,VB_FR,2,Value-Based Reward,High-Value
538,957,g9aul727y,124,22,0,0.9674,experiment_VB,-11,59,8,0.7,24,35,11,1,"[8, 3, 2, 3, 6, 2]","[2, 7, 6, 8, 7, 5]",4,5,-1,1,117,VB_FR,1,Value-Based Reward,High-Value
539,958,g9aul727y,125,22,1,1.9406,experiment_VB,8,52,8,0.7,30,22,8,1,"[4, 1, 8, 7, 4, 6]","[3, 5, 1, 7, 4, 2]",5,6,-1,1,118,VB_FR,1,Value-Based Reward,Middle-Value
540,959,g9aul727y,126,22,1,1.0482,experiment_VB,11,57,8,0.7,34,23,11,1,"[4, 6, 4, 8, 4, 8]","[5, 3, 3, 3, 3, 6]",3,3,0,0,119,VB_FR,0,Value-Based Reward,Middle-Value
541,960,g9aul727y,127,22,0,0.7886,experiment_VB,-9,65,8,0.7,28,37,9,1,"[1, 8, 2, 5, 8, 4]","[7, 8, 5, 3, 7, 7]",5,4,1,1,120,VB_FR,1,Value-Based Reward,High-Value
542,961,g9aul727y,128,22,1,0.9793,experiment_VB,9,55,8,0.7,32,23,9,1,"[8, 7, 8, 2, 1, 6]","[2, 8, 6, 1, 2, 4]",5,5,0,0,121,VB_FR,0,Value-Based Reward,Middle-Value
543,962,g9aul727y,129,22,0,1.3911,experiment_VB,-4,54,8,0.7,25,29,4,1,"[6, 2, 8, 3, 1, 5]","[7, 4, 6, 5, 1, 6]",6,5,1,1,122,VB_FR,1,Value-Based Reward,Middle-Value
544,963,g9aul727y,130,22,1,2.1894,experiment_VB,6,60,8,0.7,33,27,6,1,"[6, 4, 8, 2, 8, 5]","[7, 5, 2, 6, 2, 5]",5,4,1,1,123,VB_FR,1,Value-Based Reward,High-Value
545,964,g9aul727y,131,22,1,0.8831,experiment_VB,10,54,8,0.7,32,22,10,1,"[8, 6, 2, 3, 8, 5]","[3, 6, 1, 7, 2, 3]",5,5,0,0,124,VB_FR,0,Value-Based Reward,Middle-Value
546,965,g9aul727y,132,22,1,0.8933,experiment_VB,9,63,8,0.7,36,27,9,1,"[5, 8, 8, 7, 2, 6]","[8, 2, 2, 2, 7, 6]",5,4,1,1,125,VB_FR,1,Value-Based Reward,High-Value
547,966,g9aul727y,133,22,0,0.9663,experiment_VB,-6,54,8,0.7,24,30,6,1,"[7, 7, 2, 4, 3, 1]","[2, 8, 1, 7, 7, 5]",5,5,0,0,126,VB_FR,0,Value-Based Reward,Middle-Value
548,967,g9aul727y,134,22,1,1.885,experiment_VB,2,54,8,0.7,28,26,2,1,"[4, 1, 8, 7, 6, 2]","[6, 8, 5, 3, 3, 1]",6,5,1,1,127,VB_FR,1,Value-Based Reward,Middle-Value
549,968,g9aul727y,135,22,0,1.3097,experiment_VB,-6,44,8,0.7,19,25,6,1,"[2, 1, 2, 4, 8, 2]","[1, 7, 1, 8, 5, 3]",4,5,-1,1,128,VB_FR,1,Value-Based Reward,Low-Value
550,969,g9aul727y,136,22,0,2.849,experiment_VB,-3,53,8,0.7,25,28,3,1,"[4, 3, 4, 7, 4, 3]","[5, 5, 6, 1, 8, 3]",3,5,-2,2,129,VB_FR,2,Value-Based Reward,Middle-Value
551,970,g9aul727y,137,22,0,3.1922,experiment_VB,5,63,8,0.7,34,29,5,0,"[4, 7, 8, 3, 6, 6]","[5, 6, 4, 6, 1, 7]",5,5,0,0,130,VB_FR,0,Value-Based Reward,High-Value
552,971,g9aul727y,138,22,0,3.2846,experiment_VB,-3,47,8,0.7,22,25,3,1,"[3, 2, 2, 5, 4, 6]","[6, 3, 8, 1, 5, 2]",5,6,-1,1,131,VB_FR,1,Value-Based Reward,Low-Value
553,972,g9aul727y,140,22,0,1.0066,experiment_VB,-14,42,8,0.7,14,28,14,1,"[1, 3, 5, 2, 1, 2]","[7, 7, 2, 7, 4, 1]",4,4,0,0,132,VB_FR,0,Value-Based Reward,Low-Value
554,973,g9aul727y,141,22,0,1.0128,experiment_VB,-1,73,8,0.7,36,37,1,1,"[4, 7, 7, 8, 8, 2]","[8, 3, 6, 8, 5, 7]",4,5,-1,1,133,VB_FR,1,Value-Based Reward,High-Value
555,974,g9aul727y,142,22,1,2.0257,experiment_VB,13,47,8,0.7,30,17,13,1,"[5, 2, 6, 7, 6, 4]","[1, 1, 2, 4, 4, 5]",5,4,1,1,134,VB_FR,1,Value-Based Reward,Low-Value
556,975,g9aul727y,143,22,0,0.9664,experiment_VB,-9,53,8,0.7,22,31,9,1,"[2, 6, 3, 2, 5, 4]","[2, 5, 8, 8, 7, 1]",5,5,0,0,135,VB_FR,0,Value-Based Reward,Middle-Value
557,976,g9aul727y,144,22,1,1.2855,experiment_VB,-2,60,8,0.7,29,31,2,0,"[5, 6, 4, 8, 3, 3]","[3, 3, 8, 4, 7, 6]",5,5,0,0,136,VB_FR,0,Value-Based Reward,High-Value
558,977,g9aul727y,145,22,1,1.2352,experiment_VB,4,54,8,0.7,29,25,4,1,"[5, 6, 6, 3, 5, 4]","[2, 4, 7, 2, 7, 3]",4,4,0,0,137,VB_FR,0,Value-Based Reward,Middle-Value
559,978,g9aul727y,146,22,1,1.001,experiment_VB,11,57,8,0.7,34,23,11,1,"[7, 7, 8, 3, 2, 7]","[4, 2, 7, 7, 2, 1]",4,4,0,0,138,VB_FR,0,Value-Based Reward,Middle-Value
560,979,g9aul727y,147,22,0,1.0711,experiment_VB,-3,65,8,0.7,31,34,3,1,"[6, 5, 8, 2, 8, 2]","[7, 2, 6, 6, 7, 6]",4,3,1,1,139,VB_FR,1,Value-Based Reward,High-Value
561,980,g9aul727y,148,22,0,2.1619,experiment_VB,-1,53,8,0.7,26,27,1,1,"[3, 7, 8, 3, 2, 3]","[6, 4, 1, 6, 2, 8]",4,5,-1,1,140,VB_FR,1,Value-Based Reward,Middle-Value
562,981,g9aul727y,149,22,1,1.9547,experiment_VB,-1,59,8,0.7,29,30,1,0,"[5, 7, 2, 5, 8, 2]","[4, 3, 8, 8, 4, 3]",4,3,1,1,141,VB_FR,1,Value-Based Reward,High-Value
563,982,g9aul727y,150,22,0,1.3135,experiment_VB,-4,64,8,0.7,30,34,4,1,"[3, 8, 5, 5, 1, 8]","[1, 8, 7, 3, 8, 7]",4,4,0,0,142,VB_FR,0,Value-Based Reward,High-Value
564,1123,l1qu3qoq4,1,30,0,5.1793,experiment_VB,-2,54,4.4,0.6,26,28,2,1,"[1, 7, 8, 4, 1, 5]","[3, 7, 2, 8, 4, 4]",5,5,0,0,1,VB_FR,0,Value-Based Reward,Middle-Value
565,1124,l1qu3qoq4,2,30,0,0.9699,experiment_VB,-11,65,4.4,0.6,27,38,11,1,"[7, 6, 2, 6, 3, 3]","[8, 8, 3, 7, 7, 5]",4,4,0,0,2,VB_FR,0,Value-Based Reward,High-Value
566,1125,l1qu3qoq4,3,30,0,1.4233,experiment_VB,-1,39,4.4,0.6,19,20,1,1,"[2, 6, 3, 2, 1, 5]","[1, 4, 4, 2, 5, 4]",5,4,1,1,3,VB_FR,1,Value-Based Reward,Low-Value
567,1126,l1qu3qoq4,4,30,1,0.9968,experiment_VB,9,51,4.4,0.6,30,21,9,1,"[8, 7, 7, 1, 2, 5]","[4, 4, 1, 1, 8, 3]",5,4,1,1,4,VB_FR,1,Value-Based Reward,Middle-Value
568,1127,l1qu3qoq4,5,30,1,2.2683,experiment_VB,4,42,4.4,0.6,23,19,4,1,"[6, 2, 1, 4, 8, 2]","[1, 2, 7, 3, 3, 3]",5,4,1,1,5,VB_FR,1,Value-Based Reward,Low-Value
569,1128,l1qu3qoq4,6,30,1,4.7763,experiment_VB,-3,47,4.4,0.6,22,25,3,0,"[2, 8, 2, 1, 8, 1]","[3, 3, 4, 8, 3, 4]",3,3,0,0,6,VB_FR,0,Value-Based Reward,Low-Value
570,1129,l1qu3qoq4,7,30,0,2.5607,experiment_VB,-6,34,4.4,0.6,14,20,6,1,"[4, 3, 1, 3, 2, 1]","[1, 2, 3, 4, 2, 8]",4,5,-1,1,7,VB_FR,1,Value-Based Reward,Low-Value
571,1130,l1qu3qoq4,8,30,0,4.5601,experiment_VB,0,48,4.4,0.6,24,24,0,0,"[8, 1, 3, 6, 3, 3]","[4, 8, 4, 2, 1, 5]",4,5,-1,1,8,VB_FR,1,Value-Based Reward,Middle-Value
572,1131,l1qu3qoq4,9,30,0,1.2777,experiment_VB,-12,44,4.4,0.6,16,28,12,1,"[5, 4, 1, 2, 2, 2]","[5, 3, 7, 6, 3, 4]",4,5,-1,1,9,VB_FR,1,Value-Based Reward,Low-Value
573,1132,l1qu3qoq4,10,30,1,0.9184,experiment_VB,9,75,4.4,0.6,42,33,9,1,"[8, 5, 8, 7, 7, 7]","[7, 7, 6, 4, 1, 8]",3,5,-2,2,10,VB_FR,2,Value-Based Reward,High-Value
574,1133,l1qu3qoq4,11,30,1,2.5978,experiment_VB,3,49,4.4,0.6,26,23,3,1,"[6, 7, 1, 7, 3, 2]","[4, 8, 4, 1, 3, 3]",5,4,1,1,11,VB_FR,1,Value-Based Reward,Middle-Value
575,1134,l1qu3qoq4,12,30,0,1.1768,experiment_VB,-11,53,4.4,0.6,21,32,11,1,"[3, 1, 2, 4, 3, 8]","[7, 6, 5, 8, 2, 4]",5,6,-1,1,12,VB_FR,1,Value-Based Reward,Middle-Value
576,1135,l1qu3qoq4,13,30,0,1.0887,experiment_VB,-6,56,4.4,0.6,25,31,6,1,"[4, 6, 2, 1, 4, 8]","[8, 6, 5, 3, 2, 7]",5,6,-1,1,13,VB_FR,1,Value-Based Reward,Middle-Value
577,1136,l1qu3qoq4,14,30,1,0.7034,experiment_VB,19,69,4.4,0.6,44,25,19,1,"[8, 8, 6, 8, 6, 8]","[4, 5, 3, 3, 8, 2]",2,5,-3,3,14,VB_FR,3,Value-Based Reward,High-Value
578,1137,l1qu3qoq4,15,30,0,3.3011,experiment_VB,-8,58,4.4,0.6,25,33,8,1,"[2, 1, 3, 6, 7, 6]","[5, 8, 4, 7, 8, 1]",5,5,0,0,15,VB_FR,0,Value-Based Reward,Middle-Value
579,1138,l1qu3qoq4,17,30,1,1.1817,experiment_VB,8,40,4.4,0.6,24,16,8,1,"[7, 6, 6, 1, 3, 1]","[2, 5, 1, 2, 5, 1]",4,3,1,1,16,VB_FR,1,Value-Based Reward,Low-Value
580,1139,l1qu3qoq4,18,30,1,4.5944,experiment_VB,2,56,4.4,0.6,29,27,2,1,"[7, 2, 6, 3, 5, 6]","[6, 4, 6, 2, 6, 3]",5,4,1,1,17,VB_FR,1,Value-Based Reward,Middle-Value
581,1140,l1qu3qoq4,19,30,0,2.6315,experiment_VB,-5,55,4.4,0.6,25,30,5,1,"[4, 8, 3, 5, 2, 3]","[8, 2, 5, 4, 3, 8]",5,5,0,0,18,VB_FR,0,Value-Based Reward,Middle-Value
582,1141,l1qu3qoq4,20,30,1,2.1601,experiment_VB,4,56,4.4,0.6,30,26,4,1,"[7, 8, 6, 5, 1, 3]","[7, 6, 1, 1, 8, 3]",6,5,1,1,19,VB_FR,1,Value-Based Reward,Middle-Value
583,1142,l1qu3qoq4,21,30,0,3.3423,experiment_VB,-2,54,4.4,0.6,26,28,2,1,"[2, 6, 1, 7, 7, 3]","[6, 5, 7, 3, 2, 5]",5,5,0,0,20,VB_FR,0,Value-Based Reward,Middle-Value
584,1143,l1qu3qoq4,22,30,0,0.7003,experiment_VB,-17,61,4.4,0.6,22,39,17,1,"[3, 2, 2, 2, 7, 6]","[8, 8, 3, 6, 7, 7]",4,4,0,0,21,VB_FR,0,Value-Based Reward,High-Value
585,1144,l1qu3qoq4,24,30,1,1.2623,experiment_VB,5,65,4.4,0.6,35,30,5,1,"[3, 6, 3, 8, 8, 7]","[7, 3, 6, 8, 1, 5]",4,6,-2,2,22,VB_FR,2,Value-Based Reward,High-Value
586,1145,l1qu3qoq4,25,30,0,1.8496,experiment_VB,-6,52,4.4,0.6,23,29,6,1,"[3, 8, 6, 1, 4, 1]","[7, 4, 2, 7, 8, 1]",5,5,0,0,23,VB_FR,0,Value-Based Reward,Middle-Value
587,1146,l1qu3qoq4,26,30,1,0.7411,experiment_VB,17,55,4.4,0.6,36,19,17,1,"[4, 8, 1, 7, 8, 8]","[3, 2, 2, 5, 6, 1]",4,5,-1,1,24,VB_FR,1,Value-Based Reward,Middle-Value
588,1147,l1qu3qoq4,27,30,1,4.4277,experiment_VB,1,67,4.4,0.6,34,33,1,1,"[7, 7, 5, 2, 7, 6]","[5, 5, 3, 5, 7, 8]",4,4,0,0,25,VB_FR,0,Value-Based Reward,High-Value
589,1148,l1qu3qoq4,28,30,1,1.023,experiment_VB,6,64,4.4,0.6,35,29,6,1,"[7, 6, 8, 4, 6, 4]","[4, 4, 3, 4, 8, 6]",4,4,0,0,26,VB_FR,0,Value-Based Reward,High-Value
590,1149,l1qu3qoq4,29,30,1,2.2903,experiment_VB,8,62,4.4,0.6,35,27,8,1,"[3, 8, 3, 6, 7, 8]","[4, 6, 4, 7, 4, 2]",4,4,0,0,27,VB_FR,0,Value-Based Reward,High-Value
591,1150,l1qu3qoq4,30,30,1,3.5379,experiment_VB,2,40,4.4,0.6,21,19,2,1,"[1, 6, 1, 3, 7, 3]","[1, 5, 2, 4, 3, 4]",4,5,-1,1,28,VB_FR,1,Value-Based Reward,Low-Value
592,1151,l1qu3qoq4,31,30,0,2.4864,experiment_VB,-3,55,4.4,0.6,26,29,3,1,"[1, 3, 4, 5, 8, 5]","[3, 6, 7, 6, 2, 5]",5,5,0,0,29,VB_FR,0,Value-Based Reward,Middle-Value
593,1152,l1qu3qoq4,32,30,1,0.9686,experiment_VB,3,51,4.4,0.6,27,24,3,1,"[5, 5, 6, 4, 6, 1]","[7, 2, 2, 6, 5, 2]",4,4,0,0,30,VB_FR,0,Value-Based Reward,Middle-Value
594,1153,l1qu3qoq4,33,30,0,0.9381,experiment_VB,-7,47,4.4,0.6,20,27,7,1,"[4, 2, 1, 1, 5, 7]","[6, 6, 6, 6, 1, 2]",5,3,2,2,31,VB_FR,2,Value-Based Reward,Low-Value
595,1154,l1qu3qoq4,34,30,0,0.9936,experiment_VB,-9,47,4.4,0.6,19,28,9,1,"[5, 1, 2, 5, 4, 2]","[6, 3, 3, 5, 8, 3]",4,4,0,0,32,VB_FR,0,Value-Based Reward,Low-Value
596,1155,l1qu3qoq4,35,30,0,1.3743,experiment_VB,-8,68,4.4,0.6,30,38,8,1,"[4, 7, 6, 8, 3, 2]","[6, 7, 8, 5, 8, 4]",6,5,1,1,33,VB_FR,1,Value-Based Reward,High-Value
597,1156,l1qu3qoq4,37,30,0,0.9415,experiment_VB,-13,55,4.4,0.6,21,34,13,1,"[3, 3, 4, 5, 5, 1]","[6, 5, 6, 2, 8, 7]",4,5,-1,1,34,VB_FR,1,Value-Based Reward,Middle-Value
598,1157,l1qu3qoq4,38,30,1,0.8394,experiment_VB,11,59,4.4,0.6,35,24,11,1,"[7, 1, 8, 8, 6, 5]","[2, 2, 7, 2, 5, 6]",5,4,1,1,35,VB_FR,1,Value-Based Reward,High-Value
599,1158,l1qu3qoq4,39,30,1,2.963,experiment_VB,6,40,4.4,0.6,23,17,6,1,"[6, 1, 3, 8, 1, 4]","[5, 3, 3, 3, 2, 1]",5,4,1,1,36,VB_FR,1,Value-Based Reward,Low-Value
600,1159,l1qu3qoq4,41,30,0,1.4037,experiment_VB,-3,45,4.4,0.6,21,24,3,1,"[2, 5, 8, 1, 2, 3]","[4, 1, 4, 6, 5, 4]",5,4,1,1,37,VB_FR,1,Value-Based Reward,Low-Value
601,1160,l1qu3qoq4,42,30,1,0.5398,experiment_VB,22,60,4.4,0.6,41,19,22,1,"[6, 8, 7, 6, 6, 8]","[2, 1, 4, 5, 2, 5]",3,4,-1,1,38,VB_FR,1,Value-Based Reward,High-Value
602,1161,l1qu3qoq4,43,30,0,3.914,experiment_VB,-3,65,4.4,0.6,31,34,3,1,"[4, 7, 3, 5, 8, 4]","[5, 8, 7, 8, 4, 2]",5,5,0,0,39,VB_FR,0,Value-Based Reward,High-Value
603,1162,l1qu3qoq4,44,30,1,2.4577,experiment_VB,4,48,4.4,0.6,26,22,4,1,"[6, 6, 1, 2, 8, 3]","[4, 1, 2, 7, 5, 3]",5,6,-1,1,40,VB_FR,1,Value-Based Reward,Middle-Value
604,1163,l1qu3qoq4,45,30,0,1.3574,experiment_VB,-7,51,4.4,0.6,22,29,7,1,"[2, 6, 2, 5, 4, 3]","[6, 3, 2, 8, 5, 5]",5,5,0,0,41,VB_FR,0,Value-Based Reward,Middle-Value
605,1164,l1qu3qoq4,46,30,0,1.206,experiment_VB,-8,46,4.4,0.6,19,27,8,1,"[6, 1, 3, 4, 4, 1]","[3, 6, 6, 8, 3, 1]",4,4,0,0,42,VB_FR,0,Value-Based Reward,Low-Value
606,1165,l1qu3qoq4,47,30,0,1.3579,experiment_VB,-12,56,4.4,0.6,22,34,12,1,"[5, 3, 6, 1, 1, 6]","[5, 7, 3, 7, 4, 8]",4,5,-1,1,43,VB_FR,1,Value-Based Reward,Middle-Value
607,1166,l1qu3qoq4,48,30,1,0.7187,experiment_VB,7,61,4.4,0.6,34,27,7,1,"[6, 7, 8, 1, 6, 6]","[3, 6, 2, 1, 7, 8]",4,6,-2,2,44,VB_FR,2,Value-Based Reward,High-Value
608,1167,l1qu3qoq4,49,30,1,1.7883,experiment_VB,8,46,4.4,0.6,27,19,8,1,"[2, 5, 2, 6, 4, 8]","[7, 1, 2, 2, 2, 5]",5,4,1,1,45,VB_FR,1,Value-Based Reward,Low-Value
