,Left_sum,Right_sum,acc2_VB,accuracy,arr_L,arr_R,compensation,first_rainbow,key_press,rainbow1,rainbow2,randidx_FR,randidx_VB,response,reward_val_VB,rt,second_rainbow,slider_start,stimulus,subject,task,testvalue,time_elapsed,trialN,trial_type,value
0,,,,,,,11.5,Green to Orange,,Green to Orange,Pink to Blue,,,,,,Pink to Blue,,,hwrblsy3h,,,7681,,call,
1,,,,,,,11.5,,,Green to Orange,Pink to Blue,,,{'payment_account': 'zhao.2824@osu.edu'},,26036.59999999404,,,,hwrblsy3h,,,33724,,survey-text,
2,30.0,33.0,,1.0,"[5, 4, 1, 8, 5, 7]","[4, 7, 5, 8, 3, 6]",11.5,,74.0,Green to Orange,Pink to Blue,,,,,7387.0999999940395,,,,hwrblsy3h,training_FR,,119720,1,blocks,
3,27.0,34.0,,1.0,"[3, 2, 4, 8, 3, 7]","[6, 5, 4, 8, 4, 7]",11.5,,74.0,Green to Orange,Pink to Blue,,,,,4552.300000011921,,,,hwrblsy3h,training_FR,,126285,2,blocks,
4,18.0,32.0,,1.0,"[1, 5, 1, 5, 5, 1]","[3, 4, 6, 8, 6, 5]",11.5,,74.0,Green to Orange,Pink to Blue,,,,,1198.9000000059605,,,,hwrblsy3h,training_FR,,129496,3,blocks,
5,24.0,25.0,,1.0,"[6, 1, 3, 7, 2, 5]","[1, 1, 5, 4, 7, 7]",11.5,,74.0,Green to Orange,Pink to Blue,,,,,3185.5999999940395,,,,hwrblsy3h,training_FR,,134703,4,blocks,
6,33.0,25.0,,1.0,"[6, 8, 6, 5, 6, 2]","[2, 1, 6, 6, 5, 5]",11.5,,70.0,Green to Orange,Pink to Blue,,,,,1310.5,,,,hwrblsy3h,training_FR,,138028,5,blocks,
7,23.0,32.0,,1.0,"[5, 2, 5, 1, 6, 4]","[8, 2, 4, 2, 8, 8]",11.5,,74.0,Green to Orange,Pink to Blue,,,,,783.4000000059605,,,,hwrblsy3h,training_FR,,140826,6,blocks,
8,24.0,14.0,,1.0,"[4, 3, 7, 1, 8, 1]","[7, 2, 1, 2, 1, 1]",11.5,,70.0,Green to Orange,Pink to Blue,,,,,1311.2000000178814,,,,hwrblsy3h,training_FR,,144153,7,blocks,
9,18.0,25.0,,1.0,"[2, 6, 5, 1, 2, 2]","[4, 5, 8, 3, 2, 3]",11.5,,74.0,Green to Orange,Pink to Blue,,,,,1647.7000000178814,,,,hwrblsy3h,training_FR,,147812,8,blocks,
10,22.0,31.0,,1.0,"[1, 6, 1, 3, 3, 8]","[8, 1, 6, 6, 3, 7]",11.5,,74.0,Green to Orange,Pink to Blue,,,,,1201.9000000059605,,,,hwrblsy3h,training_FR,,151025,9,blocks,
11,20.0,18.0,,0.0,"[8, 2, 1, 3, 2, 4]","[2, 7, 1, 1, 2, 5]",11.5,,74.0,Green to Orange,Pink to Blue,,,,,4242.199999988079,,,,hwrblsy3h,training_FR,,157283,10,blocks,
12,19.0,22.0,,0.0,"[1, 6, 2, 7, 1, 2]","[5, 3, 5, 2, 2, 5]",11.5,,70.0,Green to Orange,Pink to Blue,,,,,1489.300000011921,,,,hwrblsy3h,training_FR,,160784,11,blocks,
13,27.0,32.0,,1.0,"[1, 2, 3, 6, 7, 8]","[7, 6, 2, 2, 7, 8]",11.5,,74.0,Green to Orange,Pink to Blue,,,,,1059.300000011921,,,,hwrblsy3h,training_FR,,163854,12,blocks,
14,26.0,25.0,,0.0,"[8, 4, 2, 3, 3, 6]","[4, 5, 7, 2, 4, 3]",11.5,,74.0,Green to Orange,Pink to Blue,,,,,1997.0999999940395,,,,hwrblsy3h,training_FR,,167865,13,blocks,
15,26.0,30.0,,1.0,"[5, 1, 8, 4, 7, 1]","[7, 8, 2, 5, 3, 5]",11.5,,74.0,Green to Orange,Pink to Blue,,,,,1371.1000000238419,,,,hwrblsy3h,training_FR,,171249,14,blocks,
16,23.0,27.0,,0.0,"[6, 2, 1, 1, 8, 5]","[2, 7, 5, 4, 5, 4]",11.5,,70.0,Green to Orange,Pink to Blue,,,,,1263.4000000059605,,,,hwrblsy3h,training_FR,,174526,15,blocks,
17,20.0,28.0,,0.0,"[1, 6, 2, 1, 3, 7]","[7, 1, 6, 3, 4, 7]",11.5,,70.0,Green to Orange,Pink to Blue,,,,,2072.300000011921,,,,hwrblsy3h,training_FR,,178611,16,blocks,
18,16.0,28.0,,1.0,"[7, 1, 1, 3, 3, 1]","[8, 3, 2, 6, 2, 7]",11.5,,74.0,Green to Orange,Pink to Blue,,,,,807.5,,,,hwrblsy3h,training_FR,,181438,17,blocks,
19,32.0,13.0,,1.0,"[5, 5, 8, 4, 2, 8]","[1, 4, 1, 2, 4, 1]",11.5,,70.0,Green to Orange,Pink to Blue,,,,,621.8000000119209,,,,hwrblsy3h,training_FR,,184073,18,blocks,
20,20.0,25.0,,1.0,"[4, 4, 2, 4, 2, 4]","[5, 4, 5, 4, 5, 2]",11.5,,74.0,Green to Orange,Pink to Blue,,,,,1195.199999988079,,,,hwrblsy3h,training_FR,,187283,19,blocks,
21,18.0,28.0,,1.0,"[1, 7, 5, 1, 2, 2]","[5, 7, 4, 1, 6, 5]",11.5,,74.0,Green to Orange,Pink to Blue,,,,,1163.699999988079,,,,hwrblsy3h,training_FR,,190460,20,blocks,
22,26.0,27.0,,1.0,"[5, 2, 8, 4, 1, 6]","[8, 5, 5, 1, 2, 6]",11.5,,74.0,Green to Orange,Pink to Blue,,,,,1998.5,,,,hwrblsy3h,training_FR,,194470,21,blocks,
23,25.0,32.0,,1.0,"[5, 8, 1, 4, 5, 2]","[7, 6, 8, 4, 5, 2]",11.5,,74.0,Green to Orange,Pink to Blue,,,,,1460.5999999940395,,,,hwrblsy3h,training_FR,,197941,22,blocks,
24,28.0,27.0,,0.0,"[4, 7, 4, 6, 1, 6]","[5, 4, 5, 8, 4, 1]",11.5,,74.0,Green to Orange,Pink to Blue,,,,,965.4000000059605,,,,hwrblsy3h,training_FR,,200918,23,blocks,
25,34.0,19.0,,1.0,"[7, 8, 6, 4, 8, 1]","[2, 1, 3, 7, 4, 2]",11.5,,70.0,Green to Orange,Pink to Blue,,,,,666.4000000059605,,,,hwrblsy3h,training_FR,,203595,24,blocks,
26,33.0,27.0,,1.0,"[8, 7, 5, 7, 1, 5]","[8, 2, 7, 2, 3, 5]",11.5,,70.0,Green to Orange,Pink to Blue,,,,,614.7000000178814,,,,hwrblsy3h,training_FR,,206225,25,blocks,
27,27.0,25.0,,1.0,"[5, 4, 6, 3, 1, 8]","[2, 3, 6, 2, 5, 7]",11.5,,70.0,Green to Orange,Pink to Blue,,,,,559.0999999940395,,,,hwrblsy3h,training_FR,,208797,26,blocks,
28,28.0,24.0,,1.0,"[4, 4, 5, 7, 3, 5]","[6, 3, 3, 1, 7, 4]",11.5,,70.0,Green to Orange,Pink to Blue,,,,,891.1999999880791,,,,hwrblsy3h,training_FR,,211699,27,blocks,
29,31.0,26.0,,1.0,"[5, 5, 5, 5, 3, 8]","[4, 4, 8, 5, 2, 3]",11.5,,70.0,Green to Orange,Pink to Blue,,,,,650.1999999880791,,,,hwrblsy3h,training_FR,,214364,28,blocks,
30,26.0,20.0,,1.0,"[6, 1, 4, 7, 7, 1]","[3, 5, 1, 2, 3, 6]",11.5,,70.0,Green to Orange,Pink to Blue,,,,,585.1999999880791,,,,hwrblsy3h,training_FR,,216959,29,blocks,
31,24.0,21.0,,1.0,"[2, 4, 5, 3, 7, 3]","[3, 6, 1, 2, 2, 7]",11.5,,70.0,Green to Orange,Pink to Blue,,,,,880.0,,,,hwrblsy3h,training_FR,,219849,30,blocks,
32,30.0,29.0,,1.0,"[7, 7, 3, 7, 3, 3]","[3, 8, 2, 7, 6, 3]",11.5,,70.0,Green to Orange,Pink to Blue,,,,,691.3000000119209,,,,hwrblsy3h,experiment_FR,,314181,1,blocks-exp,
33,33.0,30.0,,1.0,"[4, 4, 7, 2, 8, 8]","[4, 6, 6, 7, 1, 6]",11.5,,70.0,Green to Orange,Pink to Blue,,,,,1019.5999999940395,,,,hwrblsy3h,experiment_FR,,316212,2,blocks-exp,
34,24.0,16.0,,1.0,"[6, 1, 7, 6, 1, 3]","[2, 2, 1, 5, 1, 5]",11.5,,70.0,Green to Orange,Pink to Blue,,,,,1172.5,,,,hwrblsy3h,experiment_FR,,318394,3,blocks-exp,
35,30.0,21.0,,1.0,"[2, 7, 1, 5, 8, 7]","[1, 4, 3, 4, 1, 8]",11.5,,70.0,Green to Orange,Pink to Blue,,,,,610.7999999821186,,,,hwrblsy3h,experiment_FR,,320014,4,blocks-exp,
36,22.0,26.0,,1.0,"[3, 3, 3, 1, 5, 7]","[8, 3, 4, 4, 4, 3]",11.5,,74.0,Green to Orange,Pink to Blue,,,,,1280.699999988079,,,,hwrblsy3h,experiment_FR,,322307,5,blocks-exp,
37,28.0,24.0,,1.0,"[6, 3, 4, 4, 7, 4]","[4, 1, 5, 2, 6, 6]",11.5,,70.0,Green to Orange,Pink to Blue,,,,,1303.0,,,,hwrblsy3h,experiment_FR,,324623,6,blocks-exp,
38,33.0,25.0,,1.0,"[7, 8, 7, 5, 2, 4]","[3, 8, 6, 4, 1, 3]",11.5,,70.0,Green to Orange,Pink to Blue,,,,,568.3000000119209,,,,hwrblsy3h,experiment_FR,,326198,7,blocks-exp,
39,21.0,32.0,,1.0,"[8, 3, 3, 2, 1, 4]","[5, 8, 2, 7, 6, 4]",11.5,,74.0,Green to Orange,Pink to Blue,,,,,673.0999999940395,,,,hwrblsy3h,experiment_FR,,327882,8,blocks-exp,
40,26.0,26.0,,1.0,"[1, 8, 3, 3, 3, 8]","[2, 7, 7, 5, 1, 4]",11.5,,70.0,Green to Orange,Pink to Blue,,,,,4840.700000017881,,,,hwrblsy3h,experiment_FR,,333732,9,blocks-exp,
41,22.0,27.0,,1.0,"[6, 6, 3, 1, 1, 5]","[6, 5, 5, 2, 7, 2]",11.5,,74.0,Green to Orange,Pink to Blue,,,,,3817.5999999940395,,,,hwrblsy3h,experiment_FR,,338567,10,blocks-exp,
42,22.0,35.0,,1.0,"[3, 4, 1, 4, 8, 2]","[8, 7, 5, 1, 6, 8]",11.5,,74.0,Green to Orange,Pink to Blue,,,,,832.5,,,,hwrblsy3h,experiment_FR,,340412,11,blocks-exp,
43,34.0,26.0,,1.0,"[7, 5, 5, 4, 5, 8]","[1, 6, 6, 1, 4, 8]",11.5,,70.0,Green to Orange,Pink to Blue,,,,,1579.2999999821186,,,,hwrblsy3h,experiment_FR,,343002,12,blocks-exp,
44,37.0,30.0,,1.0,"[8, 3, 6, 7, 7, 6]","[6, 7, 4, 4, 7, 2]",11.5,,70.0,Green to Orange,Pink to Blue,,,,,2528.800000011921,,,,hwrblsy3h,experiment_FR,,346543,13,blocks-exp,
45,26.0,22.0,,1.0,"[6, 6, 1, 3, 8, 2]","[3, 5, 7, 2, 1, 4]",11.5,,70.0,Green to Orange,Pink to Blue,,,,,1052.5999999940395,,,,hwrblsy3h,experiment_FR,,348603,14,blocks-exp,
46,23.0,26.0,,1.0,"[6, 1, 5, 7, 1, 3]","[2, 7, 2, 2, 8, 5]",11.5,,74.0,Green to Orange,Pink to Blue,,,,,1113.4000000059605,,,,hwrblsy3h,experiment_FR,,350729,15,blocks-exp,
47,27.0,26.0,,0.0,"[6, 2, 5, 2, 7, 5]","[7, 7, 1, 2, 7, 2]",11.5,,74.0,Green to Orange,Pink to Blue,,,,,1168.5,,,,hwrblsy3h,experiment_FR,,352905,16,blocks-exp,
48,16.0,17.0,,1.0,"[6, 1, 1, 5, 1, 2]","[1, 2, 6, 3, 4, 1]",11.5,,74.0,Green to Orange,Pink to Blue,,,,,4282.0999999940395,,,,hwrblsy3h,experiment_FR,,358200,17,blocks-exp,
49,22.0,34.0,,1.0,"[1, 6, 1, 3, 6, 5]","[8, 7, 4, 5, 7, 3]",11.5,,74.0,Green to Orange,Pink to Blue,,,,,787.8999999761581,,,,hwrblsy3h,experiment_FR,,359995,18,blocks-exp,
50,26.0,28.0,,1.0,"[1, 1, 7, 5, 8, 4]","[4, 2, 3, 7, 8, 4]",11.5,,74.0,Green to Orange,Pink to Blue,,,,,996.0999999940395,,,,hwrblsy3h,experiment_FR,,362001,19,blocks-exp,
51,32.0,21.0,,1.0,"[6, 6, 6, 3, 7, 4]","[6, 1, 1, 3, 8, 2]",11.5,,70.0,Green to Orange,Pink to Blue,,,,,902.8000000119209,,,,hwrblsy3h,experiment_FR,,363918,20,blocks-exp,
52,21.0,24.0,,0.0,"[2, 1, 8, 2, 5, 3]","[6, 1, 5, 4, 4, 4]",11.5,,70.0,Green to Orange,Pink to Blue,,,,,698.9000000059605,,,,hwrblsy3h,experiment_FR,,365637,21,blocks-exp,
53,28.0,27.0,,1.0,"[3, 3, 4, 5, 7, 6]","[5, 4, 3, 6, 1, 8]",11.5,,70.0,Green to Orange,Pink to Blue,,,,,938.4000000059605,,,,hwrblsy3h,experiment_FR,,367587,22,blocks-exp,
54,26.0,19.0,,1.0,"[3, 2, 3, 6, 4, 8]","[2, 5, 6, 1, 1, 4]",11.5,,70.0,Green to Orange,Pink to Blue,,,,,981.5,,,,hwrblsy3h,experiment_FR,,369577,23,blocks-exp,
55,24.0,27.0,,0.0,"[2, 2, 5, 7, 6, 2]","[4, 5, 6, 6, 5, 1]",11.5,,70.0,Green to Orange,Pink to Blue,,,,,798.6999999880791,,,,hwrblsy3h,experiment_FR,,371388,24,blocks-exp,
56,24.0,20.0,,1.0,"[2, 1, 7, 4, 8, 2]","[3, 1, 7, 7, 1, 1]",11.5,,70.0,Green to Orange,Pink to Blue,,,,,1044.0999999940395,,,,hwrblsy3h,experiment_FR,,373443,25,blocks-exp,
57,22.0,28.0,,0.0,"[1, 4, 6, 1, 5, 5]","[7, 6, 4, 3, 1, 7]",11.5,,70.0,Green to Orange,Pink to Blue,,,,,1134.5999999940395,,,,hwrblsy3h,experiment_FR,,375587,26,blocks-exp,
58,22.0,29.0,,1.0,"[5, 2, 2, 3, 6, 4]","[8, 3, 5, 5, 6, 2]",11.5,,74.0,Green to Orange,Pink to Blue,,,,,1323.199999988079,,,,hwrblsy3h,experiment_FR,,377919,27,blocks-exp,
59,27.0,27.0,,1.0,"[4, 6, 4, 3, 8, 2]","[6, 3, 6, 3, 4, 5]",11.5,,70.0,Green to Orange,Pink to Blue,,,,,1013.0,,,,hwrblsy3h,experiment_FR,,379945,28,blocks-exp,
60,17.0,19.0,,0.0,"[1, 3, 6, 1, 2, 4]","[2, 2, 4, 5, 2, 4]",11.5,,70.0,Green to Orange,Pink to Blue,,,,,2174.800000011921,,,,hwrblsy3h,experiment_FR,,383126,29,blocks-exp,
61,35.0,22.0,,1.0,"[7, 7, 7, 8, 2, 4]","[1, 7, 2, 2, 2, 8]",11.5,,70.0,Green to Orange,Pink to Blue,,,,,584.1999999880791,,,,hwrblsy3h,experiment_FR,,384723,30,blocks-exp,
62,19.0,27.0,,1.0,"[1, 3, 3, 6, 2, 4]","[6, 2, 4, 5, 8, 2]",11.5,,74.0,Green to Orange,Pink to Blue,,,,,599.5999999940395,,,,hwrblsy3h,experiment_FR,,386337,31,blocks-exp,
63,26.0,25.0,,0.0,"[2, 6, 4, 2, 6, 6]","[6, 1, 7, 2, 8, 1]",11.5,,74.0,Green to Orange,Pink to Blue,,,,,962.8000000119209,,,,hwrblsy3h,experiment_FR,,388310,32,blocks-exp,
64,35.0,22.0,,1.0,"[6, 7, 7, 8, 3, 4]","[2, 1, 4, 6, 6, 3]",11.5,,70.0,Green to Orange,Pink to Blue,,,,,617.2000000178814,,,,hwrblsy3h,experiment_FR,,389936,33,blocks-exp,
65,13.0,18.0,,0.0,"[1, 1, 1, 2, 2, 6]","[2, 3, 3, 3, 3, 4]",11.5,,70.0,Green to Orange,Pink to Blue,,,,,779.9000000059605,,,,hwrblsy3h,experiment_FR,,391724,34,blocks-exp,
66,23.0,26.0,,1.0,"[8, 6, 1, 2, 5, 1]","[6, 3, 4, 7, 1, 5]",11.5,,74.0,Green to Orange,Pink to Blue,,,,,3082.5,,,,hwrblsy3h,experiment_FR,,395816,35,blocks-exp,
67,33.0,33.0,,1.0,"[6, 1, 5, 8, 8, 5]","[4, 7, 3, 6, 7, 6]",11.5,,70.0,Green to Orange,Pink to Blue,,,,,487.19999998807907,,,,hwrblsy3h,experiment_FR,,397314,36,blocks-exp,
68,36.0,19.0,,1.0,"[8, 7, 8, 8, 1, 4]","[3, 6, 2, 1, 5, 2]",11.5,,70.0,Green to Orange,Pink to Blue,,,,,677.6999999880791,,,,hwrblsy3h,experiment_FR,,399003,37,blocks-exp,
69,26.0,29.0,,1.0,"[8, 2, 3, 3, 8, 2]","[4, 7, 8, 1, 4, 5]",11.5,,74.0,Green to Orange,Pink to Blue,,,,,881.8000000119209,,,,hwrblsy3h,experiment_FR,,400890,38,blocks-exp,
70,25.0,31.0,,1.0,"[5, 3, 2, 4, 4, 7]","[6, 7, 7, 4, 6, 1]",11.5,,74.0,Green to Orange,Pink to Blue,,,,,862.3000000119209,,,,hwrblsy3h,experiment_FR,,402764,39,blocks-exp,
71,17.0,33.0,,1.0,"[5, 1, 1, 4, 5, 1]","[4, 8, 8, 8, 3, 2]",11.5,,74.0,Green to Orange,Pink to Blue,,,,,563.0,,,,hwrblsy3h,experiment_FR,,404338,40,blocks-exp,
72,28.0,20.0,,1.0,"[3, 7, 4, 6, 6, 2]","[3, 3, 7, 2, 1, 4]",11.5,,70.0,Green to Orange,Pink to Blue,,,,,517.7000000178814,,,,hwrblsy3h,experiment_FR,,405865,41,blocks-exp,
73,30.0,24.0,,1.0,"[6, 3, 7, 3, 5, 6]","[4, 3, 6, 2, 7, 2]",11.5,,70.0,Green to Orange,Pink to Blue,,,,,821.7999999821186,,,,hwrblsy3h,experiment_FR,,407699,42,blocks-exp,
74,41.0,19.0,,1.0,"[6, 8, 8, 7, 6, 6]","[2, 4, 5, 5, 2, 1]",11.5,,70.0,Green to Orange,Pink to Blue,,,,,405.0,,,,hwrblsy3h,experiment_FR,,409115,43,blocks-exp,
75,21.0,29.0,,1.0,"[3, 4, 1, 4, 3, 6]","[1, 6, 4, 3, 8, 7]",11.5,,74.0,Green to Orange,Pink to Blue,,,,,548.4000000059605,,,,hwrblsy3h,experiment_FR,,410676,44,blocks-exp,
76,20.0,25.0,,1.0,"[2, 3, 6, 1, 6, 2]","[2, 1, 8, 3, 4, 7]",11.5,,74.0,Green to Orange,Pink to Blue,,,,,996.0,,,,hwrblsy3h,experiment_FR,,412685,45,blocks-exp,
77,33.0,20.0,,1.0,"[2, 7, 7, 7, 4, 6]","[7, 2, 1, 2, 3, 5]",11.5,,70.0,Green to Orange,Pink to Blue,,,,,535.5999999940395,,,,hwrblsy3h,experiment_FR,,414231,46,blocks-exp,
78,27.0,25.0,,1.0,"[1, 4, 4, 7, 4, 7]","[3, 2, 4, 2, 6, 8]",11.5,,70.0,Green to Orange,Pink to Blue,,,,,920.3000000119209,,,,hwrblsy3h,experiment_FR,,416163,47,blocks-exp,
79,33.0,18.0,,1.0,"[8, 6, 2, 7, 5, 5]","[3, 1, 5, 1, 1, 7]",11.5,,70.0,Green to Orange,Pink to Blue,,,,,513.6999999880791,,,,hwrblsy3h,experiment_FR,,417683,48,blocks-exp,
80,18.0,21.0,,1.0,"[3, 5, 3, 3, 1, 3]","[5, 4, 3, 3, 5, 1]",11.5,,74.0,Green to Orange,Pink to Blue,,,,,5674.200000017881,,,,hwrblsy3h,experiment_FR,,424377,49,blocks-exp,
81,25.0,20.0,,1.0,"[3, 3, 6, 3, 2, 8]","[5, 1, 4, 7, 1, 2]",11.5,,70.0,Green to Orange,Pink to Blue,,,,,1133.699999988079,,,,hwrblsy3h,experiment_FR,,426521,50,blocks-exp,
82,23.0,17.0,,1.0,"[4, 3, 6, 1, 8, 1]","[1, 5, 3, 2, 3, 3]",11.5,,70.0,Green to Orange,Pink to Blue,,,,,726.8000000119209,,,,hwrblsy3h,experiment_FR,,428254,51,blocks-exp,
83,29.0,24.0,,1.0,"[4, 8, 1, 2, 7, 7]","[3, 4, 5, 8, 3, 1]",11.5,,70.0,Green to Orange,Pink to Blue,,,,,658.7999999821186,,,,hwrblsy3h,experiment_FR,,429926,52,blocks-exp,
84,20.0,17.0,,0.0,"[2, 6, 3, 3, 2, 4]","[7, 2, 2, 1, 4, 1]",11.5,,74.0,Green to Orange,Pink to Blue,,,,,1383.6000000238419,,,,hwrblsy3h,experiment_FR,,432318,53,blocks-exp,
85,27.0,35.0,,1.0,"[4, 8, 2, 3, 5, 5]","[6, 7, 7, 8, 2, 5]",11.5,,74.0,Green to Orange,Pink to Blue,,,,,716.3999999761581,,,,hwrblsy3h,experiment_FR,,434048,54,blocks-exp,
86,19.0,21.0,,1.0,"[4, 1, 2, 5, 3, 4]","[3, 1, 7, 6, 1, 3]",11.5,,74.0,Green to Orange,Pink to Blue,,,,,859.2000000178814,,,,hwrblsy3h,experiment_FR,,435917,55,blocks-exp,
87,31.0,36.0,,1.0,"[3, 4, 6, 3, 8, 7]","[8, 5, 8, 7, 6, 2]",11.5,,74.0,Green to Orange,Pink to Blue,,,,,747.4000000059605,,,,hwrblsy3h,experiment_FR,,437676,56,blocks-exp,
88,31.0,28.0,,1.0,"[4, 5, 1, 8, 8, 5]","[5, 7, 8, 1, 1, 6]",11.5,,70.0,Green to Orange,Pink to Blue,,,,,1232.800000011921,,,,hwrblsy3h,experiment_FR,,439918,57,blocks-exp,
89,19.0,28.0,,1.0,"[2, 2, 1, 5, 5, 4]","[3, 3, 8, 3, 5, 6]",11.5,,74.0,Green to Orange,Pink to Blue,,,,,1070.8999999761581,,,,hwrblsy3h,experiment_FR,,442000,58,blocks-exp,
90,34.0,17.0,,1.0,"[5, 2, 8, 4, 7, 8]","[4, 1, 1, 4, 1, 6]",11.5,,70.0,Green to Orange,Pink to Blue,,,,,515.1999999880791,,,,hwrblsy3h,experiment_FR,,443523,59,blocks-exp,
91,28.0,37.0,,1.0,"[8, 5, 3, 3, 6, 3]","[8, 7, 8, 2, 7, 5]",11.5,,74.0,Green to Orange,Pink to Blue,,,,,595.6999999880791,,,,hwrblsy3h,experiment_FR,,445129,60,blocks-exp,
92,14.0,20.0,,1.0,"[4, 1, 3, 3, 2, 1]","[1, 2, 8, 2, 3, 4]",11.5,,74.0,Green to Orange,Pink to Blue,,,,,978.0999999940395,,,,hwrblsy3h,experiment_FR,,447120,61,blocks-exp,
93,25.0,25.0,,1.0,"[7, 4, 1, 5, 6, 2]","[7, 3, 3, 6, 5, 1]",11.5,,74.0,Green to Orange,Pink to Blue,,,,,614.0999999940395,,,,hwrblsy3h,experiment_FR,,448741,62,blocks-exp,
94,26.0,26.0,,1.0,"[5, 7, 4, 7, 2, 1]","[1, 6, 4, 5, 3, 7]",11.5,,74.0,Green to Orange,Pink to Blue,,,,,1544.2000000178814,,,,hwrblsy3h,experiment_FR,,451296,63,blocks-exp,
95,16.0,29.0,,1.0,"[4, 1, 3, 1, 6, 1]","[3, 7, 6, 6, 2, 5]",11.5,,74.0,Green to Orange,Pink to Blue,,,,,593.6999999880791,,,,hwrblsy3h,experiment_FR,,452898,64,blocks-exp,
96,35.0,29.0,,1.0,"[4, 4, 6, 8, 7, 6]","[3, 8, 6, 4, 4, 4]",11.5,,70.0,Green to Orange,Pink to Blue,,,,,611.2000000178814,,,,hwrblsy3h,experiment_FR,,454521,65,blocks-exp,
97,34.0,31.0,,1.0,"[8, 8, 2, 5, 7, 4]","[3, 7, 4, 4, 5, 8]",11.5,,70.0,Green to Orange,Pink to Blue,,,,,821.6999999880791,,,,hwrblsy3h,experiment_FR,,456356,66,blocks-exp,
98,26.0,23.0,,1.0,"[3, 5, 3, 5, 3, 7]","[4, 4, 6, 3, 5, 1]",11.5,,70.0,Green to Orange,Pink to Blue,,,,,792.0,,,,hwrblsy3h,experiment_FR,,458156,67,blocks-exp,
99,19.0,20.0,,0.0,"[2, 1, 3, 2, 6, 5]","[2, 4, 1, 4, 4, 5]",11.5,,70.0,Green to Orange,Pink to Blue,,,,,962.9000000059605,,,,hwrblsy3h,experiment_FR,,460131,68,blocks-exp,
100,23.0,29.0,,1.0,"[4, 1, 8, 3, 6, 1]","[1, 7, 8, 4, 2, 7]",11.5,,74.0,Green to Orange,Pink to Blue,,,,,882.0999999940395,,,,hwrblsy3h,experiment_FR,,462024,69,blocks-exp,
101,33.0,25.0,,1.0,"[4, 7, 1, 8, 5, 8]","[3, 6, 2, 1, 7, 6]",11.5,,70.0,Green to Orange,Pink to Blue,,,,,922.2000000178814,,,,hwrblsy3h,experiment_FR,,463955,70,blocks-exp,
102,26.0,28.0,,1.0,"[8, 5, 5, 3, 2, 3]","[5, 2, 3, 8, 7, 3]",11.5,,74.0,Green to Orange,Pink to Blue,,,,,598.3999999761581,,,,hwrblsy3h,experiment_FR,,465563,71,blocks-exp,
103,29.0,20.0,,1.0,"[7, 7, 5, 3, 3, 4]","[6, 1, 1, 4, 6, 2]",11.5,,70.0,Green to Orange,Pink to Blue,,,,,840.5,,,,hwrblsy3h,experiment_FR,,467415,72,blocks-exp,
104,24.0,28.0,,1.0,"[4, 2, 4, 8, 3, 3]","[1, 5, 3, 3, 8, 8]",11.5,,74.0,Green to Orange,Pink to Blue,,,,,751.0,,,,hwrblsy3h,experiment_FR,,469174,73,blocks-exp,
105,27.0,29.0,,1.0,"[6, 2, 4, 6, 6, 3]","[5, 3, 6, 7, 2, 6]",11.5,,74.0,Green to Orange,Pink to Blue,,,,,2357.0,,,,hwrblsy3h,experiment_FR,,472541,74,blocks-exp,
106,32.0,29.0,,1.0,"[5, 7, 6, 8, 5, 1]","[5, 2, 7, 7, 4, 4]",11.5,,70.0,Green to Orange,Pink to Blue,,,,,895.1999999880791,,,,hwrblsy3h,experiment_FR,,474445,75,blocks-exp,
107,22.0,30.0,,1.0,"[3, 3, 6, 5, 2, 3]","[3, 8, 2, 5, 5, 7]",11.5,,74.0,Green to Orange,Pink to Blue,,,,,1052.800000011921,,,,hwrblsy3h,experiment_FR,,476510,76,blocks-exp,
108,20.0,27.0,,1.0,"[3, 6, 2, 1, 5, 3]","[1, 8, 2, 8, 1, 7]",11.5,,74.0,Green to Orange,Pink to Blue,,,,,732.5,,,,hwrblsy3h,experiment_FR,,478252,77,blocks-exp,
109,27.0,20.0,,1.0,"[1, 6, 6, 6, 2, 6]","[1, 2, 1, 4, 7, 5]",11.5,,70.0,Green to Orange,Pink to Blue,,,,,940.5,,,,hwrblsy3h,experiment_FR,,480202,78,blocks-exp,
110,35.0,24.0,,1.0,"[6, 8, 1, 5, 8, 7]","[6, 2, 5, 7, 2, 2]",11.5,,70.0,Green to Orange,Pink to Blue,,,,,677.4000000059605,,,,hwrblsy3h,experiment_FR,,481894,79,blocks-exp,
111,19.0,18.0,,1.0,"[1, 6, 1, 8, 1, 2]","[7, 1, 2, 1, 1, 6]",11.5,,70.0,Green to Orange,Pink to Blue,,,,,2305.199999988079,,,,hwrblsy3h,experiment_FR,,485207,80,blocks-exp,
112,28.0,28.0,,0.0,"[8, 6, 5, 5, 3, 1]","[8, 6, 1, 5, 5, 3]",11.5,,74.0,Green to Orange,Pink to Blue,,,,,1130.0,,,,hwrblsy3h,experiment_FR,,487349,81,blocks-exp,
113,34.0,27.0,,1.0,"[6, 7, 5, 4, 8, 4]","[5, 4, 5, 3, 7, 3]",11.5,,70.0,Green to Orange,Pink to Blue,,,,,700.2999999821186,,,,hwrblsy3h,experiment_FR,,489062,82,blocks-exp,
114,33.0,42.0,,1.0,"[4, 6, 8, 7, 1, 7]","[5, 7, 8, 7, 7, 8]",11.5,,74.0,Green to Orange,Pink to Blue,,,,,726.3999999761581,,,,hwrblsy3h,experiment_FR,,490797,83,blocks-exp,
115,32.0,27.0,,1.0,"[1, 8, 3, 5, 8, 7]","[2, 1, 8, 8, 5, 3]",11.5,,70.0,Green to Orange,Pink to Blue,,,,,899.5,,,,hwrblsy3h,experiment_FR,,492707,84,blocks-exp,
116,31.0,25.0,,1.0,"[6, 7, 3, 8, 5, 2]","[1, 2, 6, 4, 4, 8]",11.5,,70.0,Green to Orange,Pink to Blue,,,,,1019.2999999821186,,,,hwrblsy3h,experiment_FR,,494733,85,blocks-exp,
117,13.0,27.0,,1.0,"[4, 3, 1, 1, 1, 3]","[5, 5, 3, 4, 6, 4]",11.5,,74.0,Green to Orange,Pink to Blue,,,,,1238.5999999940395,,,,hwrblsy3h,experiment_FR,,496982,86,blocks-exp,
118,18.0,25.0,,1.0,"[5, 2, 4, 2, 3, 2]","[6, 8, 4, 3, 1, 3]",11.5,,74.0,Green to Orange,Pink to Blue,,,,,753.2999999821186,,,,hwrblsy3h,experiment_FR,,498744,87,blocks-exp,
119,35.0,30.0,,1.0,"[3, 8, 8, 7, 5, 4]","[1, 6, 8, 2, 6, 7]",11.5,,70.0,Green to Orange,Pink to Blue,,,,,1541.0,,,,hwrblsy3h,experiment_FR,,501298,88,blocks-exp,
120,27.0,24.0,,1.0,"[5, 5, 5, 3, 7, 2]","[3, 2, 8, 6, 2, 3]",11.5,,70.0,Green to Orange,Pink to Blue,,,,,874.5999999940395,,,,hwrblsy3h,experiment_FR,,503179,89,blocks-exp,
121,27.0,26.0,,0.0,"[4, 5, 5, 6, 3, 4]","[4, 7, 1, 5, 3, 6]",11.5,,74.0,Green to Orange,Pink to Blue,,,,,1055.5,,,,hwrblsy3h,experiment_FR,,505246,90,blocks-exp,
122,29.0,23.0,,1.0,"[6, 6, 2, 1, 6, 8]","[4, 1, 4, 4, 4, 6]",11.5,,70.0,Green to Orange,Pink to Blue,,,,,497.89999997615814,,,,hwrblsy3h,experiment_FR,,506755,91,blocks-exp,
123,29.0,26.0,,1.0,"[3, 2, 6, 6, 5, 7]","[3, 5, 1, 5, 4, 8]",11.5,,70.0,Green to Orange,Pink to Blue,,,,,698.8000000119209,,,,hwrblsy3h,experiment_FR,,508466,92,blocks-exp,
124,24.0,24.0,,0.0,"[3, 3, 6, 3, 1, 8]","[4, 8, 2, 5, 4, 1]",11.5,,74.0,Green to Orange,Pink to Blue,,,,,781.7000000178814,,,,hwrblsy3h,experiment_FR,,510258,93,blocks-exp,
125,17.0,22.0,,1.0,"[1, 3, 6, 3, 2, 2]","[7, 4, 4, 3, 2, 2]",11.5,,74.0,Green to Orange,Pink to Blue,,,,,932.5,,,,hwrblsy3h,experiment_FR,,512200,94,blocks-exp,
126,22.0,31.0,,1.0,"[1, 4, 5, 2, 2, 8]","[7, 5, 4, 3, 4, 8]",11.5,,74.0,Green to Orange,Pink to Blue,,,,,970.2000000178814,,,,hwrblsy3h,experiment_FR,,514191,95,blocks-exp,
127,25.0,25.0,,0.0,"[4, 6, 1, 8, 4, 2]","[5, 6, 4, 2, 2, 6]",11.5,,70.0,Green to Orange,Pink to Blue,,,,,802.2000000178814,,,,hwrblsy3h,experiment_FR,,516003,96,blocks-exp,
128,25.0,31.0,,1.0,"[6, 8, 3, 4, 3, 1]","[8, 8, 8, 2, 3, 2]",11.5,,74.0,Green to Orange,Pink to Blue,,,,,769.5,,,,hwrblsy3h,experiment_FR,,517785,97,blocks-exp,
129,27.0,31.0,,1.0,"[8, 5, 1, 1, 4, 8]","[2, 7, 8, 1, 8, 5]",11.5,,74.0,Green to Orange,Pink to Blue,,,,,635.6999999880791,,,,hwrblsy3h,experiment_FR,,519433,98,blocks-exp,
130,26.0,23.0,,1.0,"[2, 1, 3, 7, 6, 7]","[8, 3, 1, 4, 3, 4]",11.5,,70.0,Green to Orange,Pink to Blue,,,,,660.2999999821186,,,,hwrblsy3h,experiment_FR,,521105,99,blocks-exp,
131,22.0,25.0,,0.0,"[8, 1, 8, 2, 2, 1]","[4, 8, 3, 4, 3, 3]",11.5,,70.0,Green to Orange,Pink to Blue,,,,,1092.2999999821186,,,,hwrblsy3h,experiment_FR,,523207,100,blocks-exp,
132,35.0,36.0,,0.0,"[8, 5, 6, 8, 2, 6]","[6, 4, 7, 8, 6, 5]",11.5,,70.0,Green to Orange,Pink to Blue,,,,,478.80000001192093,,,,hwrblsy3h,experiment_FR,,524694,101,blocks-exp,
133,27.0,34.0,,1.0,"[2, 3, 8, 7, 6, 1]","[6, 8, 7, 6, 6, 1]",11.5,,74.0,Green to Orange,Pink to Blue,,,,,724.5999999940395,,,,hwrblsy3h,experiment_FR,,526428,102,blocks-exp,
134,23.0,39.0,,1.0,"[4, 1, 8, 3, 5, 2]","[6, 8, 3, 8, 8, 6]",11.5,,74.0,Green to Orange,Pink to Blue,,,,,770.0,,,,hwrblsy3h,experiment_FR,,528210,103,blocks-exp,
135,33.0,29.0,,1.0,"[2, 5, 7, 5, 7, 7]","[4, 2, 7, 7, 4, 5]",11.5,,70.0,Green to Orange,Pink to Blue,,,,,969.4000000059605,,,,hwrblsy3h,experiment_FR,,530190,104,blocks-exp,
136,23.0,19.0,,1.0,"[2, 1, 4, 2, 8, 6]","[3, 3, 3, 1, 7, 2]",11.5,,70.0,Green to Orange,Pink to Blue,,,,,1036.1000000238419,,,,hwrblsy3h,experiment_FR,,532239,105,blocks-exp,
137,32.0,24.0,,1.0,"[5, 4, 8, 8, 3, 4]","[6, 2, 7, 1, 2, 6]",11.5,,70.0,Green to Orange,Pink to Blue,,,,,786.0999999940395,,,,hwrblsy3h,experiment_FR,,534039,106,blocks-exp,
138,30.0,35.0,,1.0,"[1, 3, 5, 8, 7, 6]","[6, 3, 8, 3, 7, 8]",11.5,,74.0,Green to Orange,Pink to Blue,,,,,803.2999999821186,,,,hwrblsy3h,experiment_FR,,535852,107,blocks-exp,
139,23.0,27.0,,1.0,"[4, 4, 1, 7, 1, 6]","[5, 4, 6, 2, 2, 8]",11.5,,74.0,Green to Orange,Pink to Blue,,,,,858.9000000059605,,,,hwrblsy3h,experiment_FR,,537731,108,blocks-exp,
140,12.0,27.0,,1.0,"[1, 1, 2, 3, 3, 2]","[6, 5, 5, 3, 7, 1]",11.5,,74.0,Green to Orange,Pink to Blue,,,,,759.0999999940395,,,,hwrblsy3h,experiment_FR,,539501,109,blocks-exp,
141,28.0,33.0,,1.0,"[3, 5, 7, 2, 3, 8]","[5, 4, 7, 8, 7, 2]",11.5,,74.0,Green to Orange,Pink to Blue,,,,,753.0999999940395,,,,hwrblsy3h,experiment_FR,,541266,110,blocks-exp,
142,22.0,29.0,,1.0,"[7, 3, 1, 4, 5, 2]","[1, 5, 7, 6, 5, 5]",11.5,,74.0,Green to Orange,Pink to Blue,,,,,775.5,,,,hwrblsy3h,experiment_FR,,543054,111,blocks-exp,
143,33.0,23.0,,1.0,"[1, 8, 6, 7, 6, 5]","[2, 1, 4, 8, 2, 6]",11.5,,70.0,Green to Orange,Pink to Blue,,,,,724.2000000178814,,,,hwrblsy3h,experiment_FR,,544787,112,blocks-exp,
144,27.0,35.0,,1.0,"[4, 4, 7, 2, 6, 4]","[8, 6, 3, 7, 8, 3]",11.5,,74.0,Green to Orange,Pink to Blue,,,,,689.9000000059605,,,,hwrblsy3h,experiment_FR,,546484,113,blocks-exp,
145,22.0,39.0,,1.0,"[2, 2, 3, 2, 7, 6]","[8, 6, 7, 3, 7, 8]",11.5,,74.0,Green to Orange,Pink to Blue,,,,,748.5,,,,hwrblsy3h,experiment_FR,,548243,114,blocks-exp,
146,29.0,28.0,,1.0,"[5, 3, 7, 4, 7, 3]","[6, 6, 6, 2, 6, 2]",11.5,,70.0,Green to Orange,Pink to Blue,,,,,1237.2999999821186,,,,hwrblsy3h,experiment_FR,,550490,115,blocks-exp,
147,33.0,30.0,,1.0,"[5, 6, 7, 4, 3, 8]","[3, 6, 8, 1, 5, 7]",11.5,,70.0,Green to Orange,Pink to Blue,,,,,553.6999999880791,,,,hwrblsy3h,experiment_FR,,552053,116,blocks-exp,
148,31.0,18.0,,1.0,"[3, 5, 8, 6, 5, 4]","[4, 1, 1, 8, 1, 3]",11.5,,70.0,Green to Orange,Pink to Blue,,,,,626.6999999880791,,,,hwrblsy3h,experiment_FR,,553688,117,blocks-exp,
149,28.0,26.0,,1.0,"[5, 4, 6, 1, 8, 4]","[3, 7, 6, 2, 3, 5]",11.5,,70.0,Green to Orange,Pink to Blue,,,,,662.0,,,,hwrblsy3h,experiment_FR,,555361,118,blocks-exp,
150,29.0,42.0,,1.0,"[5, 3, 5, 4, 4, 8]","[6, 6, 8, 8, 6, 8]",11.5,,74.0,Green to Orange,Pink to Blue,,,,,699.0999999940395,,,,hwrblsy3h,experiment_FR,,557072,119,blocks-exp,
151,33.0,25.0,,1.0,"[6, 6, 5, 6, 2, 8]","[6, 7, 2, 1, 8, 1]",11.5,,70.0,Green to Orange,Pink to Blue,,,,,908.0,,,,hwrblsy3h,experiment_FR,,558994,120,blocks-exp,
152,26.0,30.0,,1.0,"[1, 1, 6, 7, 8, 3]","[5, 1, 3, 7, 6, 8]",11.5,,74.0,Green to Orange,Pink to Blue,,,,,1074.7999999821186,,,,hwrblsy3h,experiment_FR,,561090,121,blocks-exp,
153,30.0,25.0,,1.0,"[7, 2, 6, 6, 4, 5]","[5, 4, 2, 3, 7, 4]",11.5,,70.0,Green to Orange,Pink to Blue,,,,,1473.5,,,,hwrblsy3h,experiment_FR,,563574,122,blocks-exp,
154,28.0,26.0,,1.0,"[3, 6, 2, 7, 5, 5]","[3, 6, 7, 2, 7, 1]",11.5,,70.0,Green to Orange,Pink to Blue,,,,,983.2999999821186,,,,hwrblsy3h,experiment_FR,,565566,123,blocks-exp,
155,34.0,23.0,,1.0,"[6, 6, 7, 8, 2, 5]","[3, 5, 6, 1, 2, 6]",11.5,,70.0,Green to Orange,Pink to Blue,,,,,780.0,,,,hwrblsy3h,experiment_FR,,567359,124,blocks-exp,
156,44.0,25.0,,1.0,"[8, 8, 6, 8, 8, 6]","[2, 8, 5, 4, 3, 3]",11.5,,70.0,Green to Orange,Pink to Blue,,,,,602.2000000178814,,,,hwrblsy3h,experiment_FR,,568973,125,blocks-exp,
157,27.0,19.0,,1.0,"[5, 4, 2, 8, 6, 2]","[5, 1, 7, 2, 2, 2]",11.5,,70.0,Green to Orange,Pink to Blue,,,,,712.0,,,,hwrblsy3h,experiment_FR,,570697,126,blocks-exp,
158,27.0,19.0,,1.0,"[6, 6, 3, 1, 3, 8]","[6, 3, 1, 1, 4, 4]",11.5,,70.0,Green to Orange,Pink to Blue,,,,,706.7999999821186,,,,hwrblsy3h,experiment_FR,,572410,127,blocks-exp,
159,30.0,25.0,,1.0,"[3, 5, 8, 4, 8, 2]","[8, 3, 2, 5, 4, 3]",11.5,,70.0,Green to Orange,Pink to Blue,,,,,431.2999999821186,,,,hwrblsy3h,experiment_FR,,573850,128,blocks-exp,
160,21.0,22.0,,0.0,"[7, 1, 4, 1, 7, 1]","[1, 7, 5, 3, 5, 1]",11.5,,70.0,Green to Orange,Pink to Blue,,,,,788.0999999940395,,,,hwrblsy3h,experiment_FR,,575649,129,blocks-exp,
161,25.0,32.0,,1.0,"[1, 6, 3, 6, 3, 6]","[2, 8, 5, 1, 8, 8]",11.5,,74.0,Green to Orange,Pink to Blue,,,,,658.0999999940395,,,,hwrblsy3h,experiment_FR,,577318,130,blocks-exp,
162,23.0,33.0,,1.0,"[3, 8, 1, 4, 5, 2]","[3, 8, 3, 7, 6, 6]",11.5,,74.0,Green to Orange,Pink to Blue,,,,,666.5999999940395,,,,hwrblsy3h,experiment_FR,,578993,131,blocks-exp,
163,30.0,38.0,,1.0,"[3, 6, 7, 2, 8, 4]","[7, 4, 8, 8, 5, 6]",11.5,,74.0,Green to Orange,Pink to Blue,,,,,778.3000000119209,,,,hwrblsy3h,experiment_FR,,580781,132,blocks-exp,
164,33.0,17.0,,1.0,"[4, 5, 4, 7, 5, 8]","[1, 3, 3, 2, 6, 2]",11.5,,70.0,Green to Orange,Pink to Blue,,,,,950.5999999940395,,,,hwrblsy3h,experiment_FR,,582743,133,blocks-exp,
165,31.0,37.0,,0.0,"[1, 6, 6, 8, 2, 8]","[6, 4, 6, 8, 6, 7]",11.5,,70.0,Green to Orange,Pink to Blue,,,,,1060.9000000059605,,,,hwrblsy3h,experiment_FR,,584815,134,blocks-exp,
166,33.0,27.0,,1.0,"[6, 3, 5, 5, 7, 7]","[8, 3, 8, 4, 3, 1]",11.5,,70.0,Green to Orange,Pink to Blue,,,,,988.0,,,,hwrblsy3h,experiment_FR,,586811,135,blocks-exp,
167,38.0,31.0,,1.0,"[6, 3, 7, 8, 7, 7]","[7, 4, 1, 5, 8, 6]",11.5,,70.0,Green to Orange,Pink to Blue,,,,,834.4000000059605,,,,hwrblsy3h,experiment_FR,,588658,136,blocks-exp,
168,26.0,27.0,,1.0,"[5, 3, 4, 2, 4, 8]","[3, 6, 5, 7, 2, 4]",11.5,,74.0,Green to Orange,Pink to Blue,,,,,870.5,,,,hwrblsy3h,experiment_FR,,590539,137,blocks-exp,
169,33.0,34.0,,1.0,"[5, 5, 7, 3, 8, 5]","[7, 7, 5, 2, 7, 6]",11.5,,74.0,Green to Orange,Pink to Blue,,,,,763.9000000059605,,,,hwrblsy3h,experiment_FR,,592315,138,blocks-exp,
170,24.0,30.0,,1.0,"[6, 4, 2, 1, 5, 6]","[2, 4, 5, 4, 8, 7]",11.5,,74.0,Green to Orange,Pink to Blue,,,,,783.4000000059605,,,,hwrblsy3h,experiment_FR,,594109,139,blocks-exp,
171,32.0,28.0,,1.0,"[8, 8, 4, 2, 8, 2]","[4, 3, 4, 8, 2, 7]",11.5,,70.0,Green to Orange,Pink to Blue,,,,,732.7000000178814,,,,hwrblsy3h,experiment_FR,,595850,140,blocks-exp,
172,31.0,25.0,,1.0,"[4, 7, 6, 4, 3, 7]","[3, 3, 5, 4, 7, 3]",11.5,,70.0,Green to Orange,Pink to Blue,,,,,1179.5,,,,hwrblsy3h,experiment_FR,,598039,141,blocks-exp,
173,18.0,25.0,,1.0,"[1, 1, 8, 1, 1, 6]","[1, 8, 4, 3, 4, 5]",11.5,,74.0,Green to Orange,Pink to Blue,,,,,1158.1000000238419,,,,hwrblsy3h,experiment_FR,,600210,142,blocks-exp,
174,27.0,29.0,,0.0,"[7, 4, 8, 1, 2, 5]","[5, 7, 6, 4, 6, 1]",11.5,,70.0,Green to Orange,Pink to Blue,,,,,1239.0,,,,hwrblsy3h,experiment_FR,,602456,143,blocks-exp,
175,28.0,16.0,,1.0,"[6, 5, 7, 4, 3, 3]","[2, 2, 1, 4, 2, 5]",11.5,,70.0,Green to Orange,Pink to Blue,,,,,831.5999999940395,,,,hwrblsy3h,experiment_FR,,604297,144,blocks-exp,
176,29.0,24.0,,1.0,"[2, 1, 7, 5, 6, 8]","[4, 2, 5, 3, 8, 2]",11.5,,70.0,Green to Orange,Pink to Blue,,,,,641.0999999940395,,,,hwrblsy3h,experiment_FR,,605951,145,blocks-exp,
177,23.0,33.0,,0.0,"[5, 2, 4, 8, 1, 3]","[5, 4, 5, 7, 4, 8]",11.5,,70.0,Green to Orange,Pink to Blue,,,,,563.4000000059605,,,,hwrblsy3h,experiment_FR,,607524,146,blocks-exp,
178,24.0,26.0,,0.0,"[7, 1, 5, 1, 5, 5]","[6, 8, 4, 2, 4, 2]",11.5,,70.0,Green to Orange,Pink to Blue,,,,,2358.5,,,,hwrblsy3h,experiment_FR,,610895,147,blocks-exp,
179,27.0,38.0,,1.0,"[3, 6, 3, 7, 2, 6]","[7, 8, 8, 7, 5, 3]",11.5,,74.0,Green to Orange,Pink to Blue,,,,,3305.7000000178814,,,,hwrblsy3h,experiment_FR,,615210,148,blocks-exp,
180,27.0,19.0,,0.0,"[5, 6, 7, 1, 4, 4]","[8, 2, 1, 3, 1, 4]",11.5,,74.0,Green to Orange,Pink to Blue,,,,,6287.299999982119,,,,hwrblsy3h,experiment_FR,,622507,149,blocks-exp,
181,34.0,21.0,,1.0,"[5, 8, 7, 6, 6, 2]","[5, 1, 5, 4, 3, 3]",11.5,,70.0,Green to Orange,Pink to Blue,,,,,1066.5999999940395,,,,hwrblsy3h,experiment_FR,,624585,150,blocks-exp,
182,,,,,,,11.5,,,Green to Orange,Pink to Blue,,,21,,7891.199999988079,,16.0,img/OG/29.jpg,hwrblsy3h,,,636950,,memslider,
183,,,,,,,11.5,,,Green to Orange,Pink to Blue,,,25,,5815.4000000059605,,36.0,img/OG/27.jpg,hwrblsy3h,,,643271,,memslider,
184,,,,,,,11.5,,,Green to Orange,Pink to Blue,,,18,,2950.0,,13.0,img/OG/21.jpg,hwrblsy3h,,,646727,,memslider,
185,,,,,,,11.5,,,Green to Orange,Pink to Blue,,,30,,4350.9000000059605,,32.0,img/OG/35.jpg,hwrblsy3h,,,651586,,memslider,
186,,,,,,,11.5,,,Green to Orange,Pink to Blue,,,26,,3287.5,,41.0,img/OG/24.jpg,hwrblsy3h,,,655381,,memslider,
187,,,,,,,11.5,,,Green to Orange,Pink to Blue,,,70,,5333.5999999940395,,,img/OG/27.jpg,hwrblsy3h,,27.0,665068,,memchoice,
188,,,,,,,11.5,,,Green to Orange,Pink to Blue,,,74,,5145.4000000059605,,,img/OG/21.jpg,hwrblsy3h,,21.0,670721,,memchoice,
189,,,,,,,11.5,,,Green to Orange,Pink to Blue,,,70,,1534.9000000059605,,,img/OG/35.jpg,hwrblsy3h,,34.0,672762,,memchoice,
190,,,,,,,11.5,,,Green to Orange,Pink to Blue,,,70,,1345.4000000059605,,,img/OG/24.jpg,hwrblsy3h,,24.0,674615,,memchoice,
191,,,,,,,11.5,,,Green to Orange,Pink to Blue,,,70,,2108.0999999940395,,,img/OG/29.jpg,hwrblsy3h,,29.0,677229,,memchoice,
192,26.0,24.0,,0.0,"[2, 4, 5, 4, 6, 5]","[3, 6, 8, 3, 3, 1]",11.5,,74.0,Green to Orange,Pink to Blue,,,,,1521.699999988079,,,,hwrblsy3h,training_VB,,689787,1,blocks,
193,20.0,30.0,,1.0,"[3, 2, 7, 4, 1, 3]","[6, 4, 7, 8, 3, 2]",11.5,,74.0,Green to Orange,Pink to Blue,,,,,2007.5,,,,hwrblsy3h,training_VB,,693810,2,blocks,
194,17.0,23.0,,1.0,"[3, 6, 1, 2, 2, 3]","[8, 2, 1, 2, 8, 2]",11.5,,74.0,Green to Orange,Pink to Blue,,,,,752.2000000178814,,,,hwrblsy3h,training_VB,,696584,3,blocks,
195,36.0,13.0,,1.0,"[2, 7, 7, 8, 5, 7]","[1, 6, 2, 1, 1, 2]",11.5,,70.0,Green to Orange,Pink to Blue,,,,,485.90000000596046,,,,hwrblsy3h,training_VB,,699086,4,blocks,
196,20.0,26.0,,1.0,"[3, 5, 4, 2, 3, 3]","[6, 5, 5, 1, 3, 6]",11.5,,74.0,Green to Orange,Pink to Blue,,,,,783.5,,,,hwrblsy3h,training_VB,,701884,5,blocks,
197,29.0,23.0,,1.0,"[3, 4, 6, 2, 6, 8]","[2, 3, 2, 7, 8, 1]",11.5,,70.0,Green to Orange,Pink to Blue,,,,,581.5999999940395,,,,hwrblsy3h,training_VB,,704479,6,blocks,
198,27.0,21.0,,1.0,"[1, 4, 6, 6, 4, 6]","[1, 2, 3, 4, 7, 4]",11.5,,70.0,Green to Orange,Pink to Blue,,,,,711.8999999761581,,,,hwrblsy3h,training_VB,,707202,7,blocks,
199,17.0,29.0,,1.0,"[3, 1, 6, 5, 1, 1]","[6, 8, 3, 7, 4, 1]",11.5,,74.0,Green to Orange,Pink to Blue,,,,,613.0,,,,hwrblsy3h,training_VB,,709825,8,blocks,
200,25.0,21.0,,1.0,"[8, 5, 1, 5, 4, 2]","[1, 7, 1, 3, 6, 3]",11.5,,70.0,Green to Orange,Pink to Blue,,,,,70563.59999999404,,,,hwrblsy3h,training_VB,,782399,9,blocks,
201,26.0,23.0,,1.0,"[6, 7, 2, 4, 3, 4]","[7, 5, 3, 2, 3, 3]",11.5,,70.0,Green to Orange,Pink to Blue,,,,,673.3999999761581,,,,hwrblsy3h,training_VB,,785087,10,blocks,
202,29.0,27.0,,1.0,"[1, 6, 7, 8, 5, 2]","[1, 8, 5, 5, 6, 2]",11.5,,70.0,Green to Orange,Pink to Blue,,,,,589.5,,,,hwrblsy3h,training_VB,,787690,11,blocks,
203,41.0,28.0,,1.0,"[7, 7, 8, 6, 8, 5]","[3, 5, 5, 8, 6, 1]",11.5,,70.0,Green to Orange,Pink to Blue,,,,,442.59999999403954,,,,hwrblsy3h,training_VB,,790144,12,blocks,
204,31.0,29.0,,0.0,"[5, 5, 5, 6, 8, 2]","[2, 8, 1, 2, 8, 8]",11.5,,74.0,Green to Orange,Pink to Blue,,,,,1620.7000000178814,,,,hwrblsy3h,training_VB,,793789,13,blocks,
205,35.0,25.0,,1.0,"[8, 5, 8, 6, 5, 3]","[6, 1, 4, 7, 6, 1]",11.5,,70.0,Green to Orange,Pink to Blue,,,,,568.8000000119209,,,,hwrblsy3h,training_VB,,796372,14,blocks,
206,28.0,29.0,,1.0,"[5, 8, 4, 3, 3, 5]","[3, 6, 6, 6, 1, 7]",11.5,,74.0,Green to Orange,Pink to Blue,,,,,689.7000000178814,,,,hwrblsy3h,training_VB,,799074,15,blocks,
207,23.0,25.0,,1.0,"[2, 2, 7, 3, 7, 2]","[1, 8, 3, 6, 4, 3]",11.5,,74.0,Green to Orange,Pink to Blue,,,,,697.8000000119209,,,,hwrblsy3h,training_VB,,801782,16,blocks,
208,26.0,33.0,,1.0,"[1, 5, 5, 4, 3, 8]","[6, 5, 4, 5, 8, 5]",11.5,,74.0,Green to Orange,Pink to Blue,,,,,562.8000000119209,,,,hwrblsy3h,training_VB,,804360,17,blocks,
209,23.0,26.0,,1.0,"[3, 8, 1, 3, 5, 3]","[3, 1, 7, 4, 4, 7]",11.5,,74.0,Green to Orange,Pink to Blue,,,,,502.40000000596046,,,,hwrblsy3h,training_VB,,806873,18,blocks,
210,30.0,26.0,,0.0,"[4, 1, 6, 8, 8, 3]","[1, 7, 6, 2, 8, 2]",11.5,,74.0,Green to Orange,Pink to Blue,,,,,2554.0,,,,hwrblsy3h,training_VB,,811435,19,blocks,
211,24.0,21.0,,1.0,"[3, 5, 3, 2, 8, 3]","[2, 4, 4, 1, 8, 2]",11.5,,70.0,Green to Orange,Pink to Blue,,,,,1280.199999988079,,,,hwrblsy3h,training_VB,,814721,20,blocks,
212,27.0,26.0,,1.0,"[6, 4, 6, 3, 3, 5]","[6, 3, 6, 6, 1, 4]",11.5,,70.0,Green to Orange,Pink to Blue,,,,,542.1000000238419,,,,hwrblsy3h,training_VB,,817273,21,blocks,
213,29.0,28.0,,1.0,"[2, 8, 8, 5, 1, 5]","[4, 5, 7, 3, 7, 2]",11.5,,70.0,Green to Orange,Pink to Blue,,,,,631.2000000178814,,,,hwrblsy3h,training_VB,,819912,22,blocks,
214,26.0,25.0,,1.0,"[6, 4, 4, 2, 7, 3]","[3, 4, 7, 1, 5, 5]",11.5,,70.0,Green to Orange,Pink to Blue,,,,,865.1999999880791,,,,hwrblsy3h,training_VB,,822789,23,blocks,
215,31.0,20.0,,1.0,"[6, 7, 4, 7, 1, 6]","[1, 4, 1, 3, 6, 5]",11.5,,70.0,Green to Orange,Pink to Blue,,,,,501.2000000178814,,,,hwrblsy3h,training_VB,,825301,24,blocks,
216,27.0,22.0,,1.0,"[3, 3, 7, 4, 4, 6]","[4, 1, 6, 4, 2, 5]",11.5,,70.0,Green to Orange,Pink to Blue,,,,,758.2000000178814,,,,hwrblsy3h,training_VB,,828069,25,blocks,
217,24.0,31.0,,1.0,"[1, 6, 6, 6, 3, 2]","[7, 7, 1, 8, 3, 5]",11.5,,74.0,Green to Orange,Pink to Blue,,,,,926.5,,,,hwrblsy3h,training_VB,,831005,26,blocks,
218,27.0,34.0,,1.0,"[1, 8, 3, 3, 7, 5]","[7, 3, 2, 8, 8, 6]",11.5,,74.0,Green to Orange,Pink to Blue,,,,,586.1999999880791,,,,hwrblsy3h,training_VB,,833604,27,blocks,
219,30.0,32.0,,1.0,"[4, 2, 8, 3, 8, 5]","[8, 2, 8, 4, 3, 7]",11.5,,74.0,Green to Orange,Pink to Blue,,,,,511.40000000596046,,,,hwrblsy3h,training_VB,,836129,28,blocks,
220,26.0,34.0,,1.0,"[2, 3, 2, 5, 6, 8]","[3, 8, 4, 7, 7, 5]",11.5,,74.0,Green to Orange,Pink to Blue,,,,,510.59999999403954,,,,hwrblsy3h,training_VB,,838653,29,blocks,
221,33.0,20.0,,1.0,"[8, 6, 6, 5, 6, 2]","[4, 4, 2, 3, 1, 6]",11.5,,70.0,Green to Orange,Pink to Blue,,,,,1159.7000000178814,,,,hwrblsy3h,training_VB,,841822,30,blocks,
222,34.0,30.0,,1.0,"[3, 4, 5, 7, 8, 7]","[7, 5, 5, 8, 1, 4]",11.5,,70.0,Green to Orange,Pink to Blue,,,,,1036.5999999940395,,,,hwrblsy3h,experiment_VB,,875668,1,blocks-exp,
223,18.0,44.0,,1.0,"[1, 3, 1, 6, 5, 2]","[8, 7, 7, 7, 7, 8]",11.5,,74.0,Green to Orange,Pink to Blue,,,,,565.5,,,,hwrblsy3h,experiment_VB,,877241,2,blocks-exp,
224,25.0,19.0,,1.0,"[1, 7, 1, 2, 7, 7]","[3, 4, 1, 8, 1, 2]",11.5,,70.0,Green to Orange,Pink to Blue,,,,,834.3000000119209,,,,hwrblsy3h,experiment_VB,,879087,3,blocks-exp,
225,32.0,23.0,,1.0,"[2, 7, 6, 8, 8, 1]","[1, 2, 6, 4, 2, 8]",11.5,,70.0,Green to Orange,Pink to Blue,,,,,781.5,,,,hwrblsy3h,experiment_VB,,880881,4,blocks-exp,
226,32.0,14.0,,1.0,"[8, 8, 4, 2, 7, 3]","[3, 3, 4, 1, 1, 2]",11.5,,70.0,Green to Orange,Pink to Blue,,,,,765.4000000059605,,,,hwrblsy3h,experiment_VB,,882657,5,blocks-exp,
227,20.0,37.0,,1.0,"[3, 3, 3, 2, 1, 8]","[7, 7, 7, 7, 1, 8]",11.5,,74.0,Green to Orange,Pink to Blue,,,,,571.8000000119209,,,,hwrblsy3h,experiment_VB,,884242,6,blocks-exp,
228,23.0,14.0,,1.0,"[1, 4, 8, 8, 1, 1]","[1, 3, 1, 6, 1, 2]",11.5,,70.0,Green to Orange,Pink to Blue,,,,,691.7000000178814,,,,hwrblsy3h,experiment_VB,,885945,7,blocks-exp,
229,35.0,24.0,,1.0,"[8, 8, 5, 3, 3, 8]","[3, 3, 7, 2, 4, 5]",11.5,,70.0,Green to Orange,Pink to Blue,,,,,513.0,,,,hwrblsy3h,experiment_VB,,887464,8,blocks-exp,
230,38.0,25.0,,1.0,"[7, 8, 8, 6, 3, 6]","[7, 2, 7, 3, 3, 3]",11.5,,70.0,Green to Orange,Pink to Blue,,,,,496.7000000178814,,,,hwrblsy3h,experiment_VB,,888973,9,blocks-exp,
231,18.0,19.0,,0.0,"[7, 1, 2, 6, 1, 1]","[4, 4, 1, 1, 2, 7]",11.5,,70.0,Green to Orange,Pink to Blue,,,,,3492.0,,,,hwrblsy3h,experiment_VB,,893478,10,blocks-exp,
232,27.0,33.0,,1.0,"[1, 1, 6, 8, 3, 8]","[8, 6, 7, 3, 8, 1]",11.5,,74.0,Green to Orange,Pink to Blue,,,,,884.2999999821186,,,,hwrblsy3h,experiment_VB,,895370,11,blocks-exp,
233,31.0,21.0,,1.0,"[5, 5, 8, 7, 2, 4]","[6, 1, 2, 7, 1, 4]",11.5,,70.0,Green to Orange,Pink to Blue,,,,,762.4000000059605,,,,hwrblsy3h,experiment_VB,,897143,12,blocks-exp,
234,22.0,31.0,,1.0,"[3, 3, 7, 3, 4, 2]","[8, 5, 2, 4, 7, 5]",11.5,,74.0,Green to Orange,Pink to Blue,,,,,1012.7999999821186,,,,hwrblsy3h,experiment_VB,,899166,13,blocks-exp,
235,23.0,31.0,,1.0,"[1, 7, 1, 1, 8, 5]","[8, 1, 5, 8, 5, 4]",11.5,,74.0,Green to Orange,Pink to Blue,,,,,621.8000000119209,,,,hwrblsy3h,experiment_VB,,900797,14,blocks-exp,
236,24.0,30.0,,1.0,"[1, 7, 3, 7, 2, 4]","[1, 7, 5, 7, 8, 2]",11.5,,74.0,Green to Orange,Pink to Blue,,,,,658.7000000178814,,,,hwrblsy3h,experiment_VB,,902470,15,blocks-exp,
237,26.0,30.0,,1.0,"[2, 6, 1, 3, 8, 6]","[2, 7, 8, 7, 4, 2]",11.5,,74.0,Green to Orange,Pink to Blue,,,,,563.8000000119209,,,,hwrblsy3h,experiment_VB,,904054,16,blocks-exp,
238,31.0,30.0,,0.0,"[4, 7, 4, 2, 8, 6]","[7, 4, 7, 8, 1, 3]",11.5,,74.0,Green to Orange,Pink to Blue,,,,,563.0,,,,hwrblsy3h,experiment_VB,,905627,17,blocks-exp,
239,30.0,25.0,,0.0,"[4, 6, 5, 1, 6, 8]","[6, 4, 8, 3, 2, 2]",11.5,,74.0,Green to Orange,Pink to Blue,,,,,560.3999999761581,,,,hwrblsy3h,experiment_VB,,907200,18,blocks-exp,
240,19.0,24.0,,1.0,"[2, 4, 1, 7, 1, 4]","[4, 2, 8, 4, 5, 1]",11.5,,74.0,Green to Orange,Pink to Blue,,,,,2531.5,,,,hwrblsy3h,experiment_VB,,910742,19,blocks-exp,
241,23.0,34.0,,1.0,"[7, 2, 7, 2, 4, 1]","[7, 2, 3, 7, 7, 8]",11.5,,74.0,Green to Orange,Pink to Blue,,,,,634.6999999880791,,,,hwrblsy3h,experiment_VB,,912390,20,blocks-exp,
242,15.0,12.0,,1.0,"[6, 2, 2, 2, 1, 2]","[2, 2, 4, 1, 1, 2]",11.5,,70.0,Green to Orange,Pink to Blue,,,,,1181.5,,,,hwrblsy3h,experiment_VB,,914584,21,blocks-exp,
243,14.0,28.0,,1.0,"[2, 1, 2, 1, 5, 3]","[2, 1, 7, 7, 7, 4]",11.5,,74.0,Green to Orange,Pink to Blue,,,,,555.6999999880791,,,,hwrblsy3h,experiment_VB,,916151,22,blocks-exp,
244,17.0,30.0,,1.0,"[5, 4, 1, 2, 1, 4]","[2, 4, 6, 5, 6, 7]",11.5,,74.0,Green to Orange,Pink to Blue,,,,,496.80000001192093,,,,hwrblsy3h,experiment_VB,,917661,23,blocks-exp,
245,24.0,24.0,,1.0,"[4, 3, 4, 8, 3, 2]","[3, 2, 4, 8, 1, 6]",11.5,,74.0,Green to Orange,Pink to Blue,,,,,623.7000000178814,,,,hwrblsy3h,experiment_VB,,919295,24,blocks-exp,
246,27.0,36.0,,1.0,"[8, 6, 2, 2, 2, 7]","[5, 7, 2, 8, 6, 8]",11.5,,74.0,Green to Orange,Pink to Blue,,,,,595.5,,,,hwrblsy3h,experiment_VB,,920901,25,blocks-exp,
247,23.0,18.0,,0.0,"[4, 4, 6, 1, 1, 7]","[7, 1, 1, 3, 1, 5]",11.5,,74.0,Green to Orange,Pink to Blue,,,,,462.90000000596046,,,,hwrblsy3h,experiment_VB,,922375,26,blocks-exp,
248,28.0,25.0,,0.0,"[3, 2, 6, 7, 2, 8]","[3, 7, 1, 7, 6, 1]",11.5,,74.0,Green to Orange,Pink to Blue,,,,,1321.9000000059605,,,,hwrblsy3h,experiment_VB,,924708,27,blocks-exp,
249,31.0,35.0,,0.0,"[2, 8, 8, 6, 6, 1]","[5, 3, 7, 8, 6, 6]",11.5,,70.0,Green to Orange,Pink to Blue,,,,,751.6000000238419,,,,hwrblsy3h,experiment_VB,,926479,28,blocks-exp,
250,25.0,28.0,,1.0,"[2, 6, 2, 3, 6, 6]","[7, 8, 2, 2, 4, 5]",11.5,,74.0,Green to Orange,Pink to Blue,,,,,1084.9000000059605,,,,hwrblsy3h,experiment_VB,,928574,29,blocks-exp,
251,36.0,23.0,,1.0,"[8, 4, 7, 2, 8, 7]","[2, 7, 3, 5, 4, 2]",11.5,,70.0,Green to Orange,Pink to Blue,,,,,728.0,,,,hwrblsy3h,experiment_VB,,930310,30,blocks-exp,
252,28.0,22.0,,1.0,"[5, 4, 3, 7, 4, 5]","[3, 3, 7, 2, 3, 4]",11.5,,70.0,Green to Orange,Pink to Blue,,,,,1788.7000000178814,,,,hwrblsy3h,experiment_VB,,933108,31,blocks-exp,
253,37.0,36.0,,1.0,"[8, 7, 6, 3, 5, 8]","[2, 7, 7, 8, 4, 8]",11.5,,70.0,Green to Orange,Pink to Blue,,,,,3221.399999976158,,,,hwrblsy3h,experiment_VB,,937340,32,blocks-exp,
254,21.0,29.0,,1.0,"[8, 2, 3, 4, 3, 1]","[5, 3, 5, 8, 1, 7]",11.5,,74.0,Green to Orange,Pink to Blue,,,,,940.0,,,,hwrblsy3h,experiment_VB,,939291,33,blocks-exp,
255,24.0,30.0,,1.0,"[6, 2, 7, 1, 3, 5]","[6, 4, 4, 4, 4, 8]",11.5,,74.0,Green to Orange,Pink to Blue,,,,,1150.2000000178814,,,,hwrblsy3h,experiment_VB,,941455,34,blocks-exp,
256,29.0,24.0,,0.0,"[8, 5, 7, 4, 3, 2]","[3, 7, 5, 3, 4, 2]",11.5,,74.0,Green to Orange,Pink to Blue,,,,,1053.5999999940395,,,,hwrblsy3h,experiment_VB,,943516,35,blocks-exp,
257,27.0,32.0,,1.0,"[3, 3, 7, 2, 4, 8]","[3, 2, 8, 8, 8, 3]",11.5,,74.0,Green to Orange,Pink to Blue,,,,,797.8000000119209,,,,hwrblsy3h,experiment_VB,,945328,36,blocks-exp,
258,22.0,26.0,,1.0,"[6, 1, 1, 8, 1, 5]","[4, 2, 5, 6, 4, 5]",11.5,,74.0,Green to Orange,Pink to Blue,,,,,926.1000000238419,,,,hwrblsy3h,experiment_VB,,947266,37,blocks-exp,
259,29.0,15.0,,1.0,"[3, 7, 6, 4, 2, 7]","[6, 2, 3, 2, 1, 1]",11.5,,70.0,Green to Orange,Pink to Blue,,,,,720.0,,,,hwrblsy3h,experiment_VB,,948996,38,blocks-exp,
260,14.0,23.0,,1.0,"[1, 4, 2, 4, 2, 1]","[3, 3, 2, 3, 4, 8]",11.5,,74.0,Green to Orange,Pink to Blue,,,,,852.0,,,,hwrblsy3h,experiment_VB,,950859,39,blocks-exp,
261,19.0,24.0,,1.0,"[6, 6, 1, 2, 1, 3]","[6, 3, 5, 2, 5, 3]",11.5,,74.0,Green to Orange,Pink to Blue,,,,,1935.0,,,,hwrblsy3h,experiment_VB,,953809,40,blocks-exp,
262,19.0,21.0,,1.0,"[1, 2, 3, 6, 4, 3]","[4, 4, 7, 2, 3, 1]",11.5,,74.0,Green to Orange,Pink to Blue,,,,,1627.0999999940395,,,,hwrblsy3h,experiment_VB,,956445,41,blocks-exp,
263,23.0,34.0,,1.0,"[3, 3, 5, 3, 3, 6]","[4, 4, 4, 6, 8, 8]",11.5,,74.0,Green to Orange,Pink to Blue,,,,,575.6999999880791,,,,hwrblsy3h,experiment_VB,,958035,42,blocks-exp,
264,30.0,26.0,,1.0,"[6, 7, 5, 4, 1, 7]","[7, 4, 6, 4, 3, 2]",11.5,,70.0,Green to Orange,Pink to Blue,,,,,765.2999999821186,,,,hwrblsy3h,experiment_VB,,959811,43,blocks-exp,
265,26.0,17.0,,1.0,"[6, 1, 6, 8, 4, 1]","[1, 3, 2, 3, 7, 1]",11.5,,70.0,Green to Orange,Pink to Blue,,,,,1265.5,,,,hwrblsy3h,experiment_VB,,962089,44,blocks-exp,
266,29.0,30.0,,1.0,"[3, 8, 6, 2, 8, 2]","[3, 5, 6, 1, 7, 8]",11.5,,74.0,Green to Orange,Pink to Blue,,,,,1105.800000011921,,,,hwrblsy3h,experiment_VB,,964206,45,blocks-exp,
267,29.0,21.0,,1.0,"[7, 5, 8, 5, 1, 3]","[2, 1, 8, 6, 1, 3]",11.5,,70.0,Green to Orange,Pink to Blue,,,,,1449.0999999940395,,,,hwrblsy3h,experiment_VB,,966661,46,blocks-exp,
268,27.0,26.0,,1.0,"[8, 2, 1, 7, 2, 7]","[2, 1, 8, 7, 2, 6]",11.5,,70.0,Green to Orange,Pink to Blue,,,,,782.6000000238419,,,,hwrblsy3h,experiment_VB,,968455,47,blocks-exp,
269,19.0,29.0,,1.0,"[2, 2, 5, 1, 4, 5]","[6, 5, 7, 3, 6, 2]",11.5,,74.0,Green to Orange,Pink to Blue,,,,,1294.199999988079,,,,hwrblsy3h,experiment_VB,,970762,48,blocks-exp,
270,18.0,20.0,,1.0,"[2, 3, 4, 6, 1, 2]","[1, 2, 8, 1, 2, 6]",11.5,,74.0,Green to Orange,Pink to Blue,,,,,1718.0999999940395,,,,hwrblsy3h,experiment_VB,,973488,49,blocks-exp,
271,10.0,28.0,,1.0,"[1, 1, 1, 3, 1, 3]","[1, 8, 7, 5, 1, 6]",11.5,,74.0,Green to Orange,Pink to Blue,,,,,757.0999999940395,,,,hwrblsy3h,experiment_VB,,975258,50,blocks-exp,
272,30.0,34.0,,0.0,"[1, 7, 8, 7, 5, 2]","[3, 5, 6, 8, 4, 8]",11.5,,70.0,Green to Orange,Pink to Blue,,,,,729.5999999940395,,,,hwrblsy3h,experiment_VB,,977001,51,blocks-exp,
273,33.0,31.0,,1.0,"[7, 8, 4, 6, 3, 5]","[6, 8, 4, 8, 4, 1]",11.5,,70.0,Green to Orange,Pink to Blue,,,,,1439.9000000059605,,,,hwrblsy3h,experiment_VB,,979449,52,blocks-exp,
274,34.0,30.0,,1.0,"[8, 7, 1, 3, 7, 8]","[8, 5, 1, 3, 8, 5]",11.5,,70.0,Green to Orange,Pink to Blue,,,,,652.7000000178814,,,,hwrblsy3h,experiment_VB,,981121,53,blocks-exp,
275,33.0,29.0,,1.0,"[7, 3, 5, 5, 6, 7]","[5, 6, 4, 4, 8, 2]",11.5,,70.0,Green to Orange,Pink to Blue,,,,,875.9000000059605,,,,hwrblsy3h,experiment_VB,,983008,54,blocks-exp,
276,25.0,31.0,,1.0,"[4, 8, 1, 1, 7, 4]","[1, 5, 8, 4, 8, 5]",11.5,,74.0,Green to Orange,Pink to Blue,,,,,1032.4000000059605,,,,hwrblsy3h,experiment_VB,,985051,55,blocks-exp,
277,28.0,18.0,,1.0,"[8, 2, 3, 5, 2, 8]","[2, 5, 3, 1, 1, 6]",11.5,,70.0,Green to Orange,Pink to Blue,,,,,1231.9000000059605,,,,hwrblsy3h,experiment_VB,,987292,56,blocks-exp,
278,25.0,21.0,,1.0,"[2, 1, 2, 8, 7, 5]","[4, 2, 8, 3, 2, 2]",11.5,,70.0,Green to Orange,Pink to Blue,,,,,623.5999999940395,,,,hwrblsy3h,experiment_VB,,988924,57,blocks-exp,
279,28.0,37.0,,1.0,"[2, 4, 1, 5, 8, 8]","[5, 7, 8, 7, 3, 7]",11.5,,74.0,Green to Orange,Pink to Blue,,,,,882.3000000119209,,,,hwrblsy3h,experiment_VB,,990815,58,blocks-exp,
280,34.0,24.0,,1.0,"[6, 6, 6, 2, 8, 6]","[5, 6, 6, 1, 2, 4]",11.5,,70.0,Green to Orange,Pink to Blue,,,,,672.1999999880791,,,,hwrblsy3h,experiment_VB,,992499,59,blocks-exp,
281,21.0,34.0,,1.0,"[3, 3, 2, 6, 5, 2]","[4, 4, 8, 6, 4, 8]",11.5,,74.0,Green to Orange,Pink to Blue,,,,,814.8999999761581,,,,hwrblsy3h,experiment_VB,,994327,60,blocks-exp,
282,25.0,30.0,,1.0,"[5, 2, 5, 8, 3, 2]","[8, 5, 4, 8, 2, 3]",11.5,,74.0,Green to Orange,Pink to Blue,,,,,784.5999999940395,,,,hwrblsy3h,experiment_VB,,996121,61,blocks-exp,
283,26.0,30.0,,1.0,"[6, 3, 5, 2, 3, 7]","[1, 6, 5, 7, 3, 8]",11.5,,74.0,Green to Orange,Pink to Blue,,,,,762.7000000178814,,,,hwrblsy3h,experiment_VB,,997897,62,blocks-exp,
284,31.0,23.0,,0.0,"[3, 7, 4, 6, 4, 7]","[2, 1, 1, 5, 6, 8]",11.5,,74.0,Green to Orange,Pink to Blue,,,,,599.7000000178814,,,,hwrblsy3h,experiment_VB,,999506,63,blocks-exp,
285,27.0,30.0,,1.0,"[2, 4, 2, 4, 8, 7]","[5, 5, 1, 8, 7, 4]",11.5,,74.0,Green to Orange,Pink to Blue,,,,,747.5,,,,hwrblsy3h,experiment_VB,,1001264,64,blocks-exp,
286,27.0,23.0,,1.0,"[5, 2, 6, 4, 7, 3]","[1, 4, 5, 1, 4, 8]",11.5,,70.0,Green to Orange,Pink to Blue,,,,,1738.2000000178814,,,,hwrblsy3h,experiment_VB,,1004016,65,blocks-exp,
287,26.0,31.0,,1.0,"[4, 8, 8, 3, 2, 1]","[7, 5, 8, 3, 7, 1]",11.5,,74.0,Green to Orange,Pink to Blue,,,,,1009.0999999940395,,,,hwrblsy3h,experiment_VB,,1006031,66,blocks-exp,
288,32.0,18.0,,1.0,"[8, 6, 1, 4, 6, 7]","[1, 2, 4, 2, 5, 4]",11.5,,70.0,Green to Orange,Pink to Blue,,,,,872.5,,,,hwrblsy3h,experiment_VB,,1007916,67,blocks-exp,
289,25.0,35.0,,1.0,"[2, 7, 3, 3, 7, 3]","[2, 8, 6, 4, 8, 7]",11.5,,74.0,Green to Orange,Pink to Blue,,,,,832.0,,,,hwrblsy3h,experiment_VB,,1009757,68,blocks-exp,
290,25.0,22.0,,0.0,"[3, 4, 3, 8, 5, 2]","[4, 3, 2, 6, 1, 6]",11.5,,74.0,Green to Orange,Pink to Blue,,,,,1484.0999999940395,,,,hwrblsy3h,experiment_VB,,1012253,69,blocks-exp,
291,14.0,31.0,,1.0,"[1, 1, 3, 5, 1, 3]","[6, 5, 6, 1, 6, 7]",11.5,,74.0,Green to Orange,Pink to Blue,,,,,638.2000000178814,,,,hwrblsy3h,experiment_VB,,1013908,70,blocks-exp,
292,29.0,29.0,,0.0,"[1, 6, 3, 8, 7, 4]","[7, 4, 7, 6, 4, 1]",11.5,,70.0,Green to Orange,Pink to Blue,,,,,1595.7000000178814,,,,hwrblsy3h,experiment_VB,,1016514,71,blocks-exp,
293,28.0,32.0,,1.0,"[3, 6, 3, 4, 8, 4]","[5, 8, 2, 6, 5, 6]",11.5,,74.0,Green to Orange,Pink to Blue,,,,,759.7999999821186,,,,hwrblsy3h,experiment_VB,,1018286,72,blocks-exp,
294,26.0,26.0,,0.0,"[2, 1, 8, 8, 6, 1]","[5, 4, 2, 4, 3, 8]",11.5,,70.0,Green to Orange,Pink to Blue,,,,,703.6999999880791,,,,hwrblsy3h,experiment_VB,,1019999,73,blocks-exp,
295,23.0,34.0,,1.0,"[5, 7, 2, 1, 3, 5]","[5, 7, 1, 6, 8, 7]",11.5,,74.0,Green to Orange,Pink to Blue,,,,,822.5999999940395,,,,hwrblsy3h,experiment_VB,,1021832,74,blocks-exp,
296,22.0,32.0,,1.0,"[1, 3, 6, 2, 3, 7]","[6, 2, 5, 3, 8, 8]",11.5,,74.0,Green to Orange,Pink to Blue,,,,,968.6999999880791,,,,hwrblsy3h,experiment_VB,,1023811,75,blocks-exp,
297,25.0,24.0,,1.0,"[3, 6, 5, 6, 1, 4]","[2, 3, 2, 4, 6, 7]",11.5,,70.0,Green to Orange,Pink to Blue,,,,,1204.300000011921,,,,hwrblsy3h,experiment_VB,,1026029,76,blocks-exp,
298,17.0,27.0,,1.0,"[1, 2, 1, 3, 6, 4]","[2, 6, 4, 4, 4, 7]",11.5,,74.0,Green to Orange,Pink to Blue,,,,,671.0,,,,hwrblsy3h,experiment_VB,,1027706,77,blocks-exp,
299,30.0,25.0,,1.0,"[3, 6, 6, 8, 6, 1]","[3, 8, 2, 3, 6, 3]",11.5,,70.0,Green to Orange,Pink to Blue,,,,,515.7000000178814,,,,hwrblsy3h,experiment_VB,,1029233,78,blocks-exp,
300,25.0,30.0,,1.0,"[2, 5, 6, 4, 1, 7]","[7, 6, 1, 7, 7, 2]",11.5,,74.0,Green to Orange,Pink to Blue,,,,,704.7999999821186,,,,hwrblsy3h,experiment_VB,,1030951,79,blocks-exp,
301,30.0,22.0,,0.0,"[6, 1, 8, 4, 4, 7]","[1, 2, 5, 7, 4, 3]",11.5,,74.0,Green to Orange,Pink to Blue,,,,,561.0,,,,hwrblsy3h,experiment_VB,,1032524,80,blocks-exp,
302,32.0,30.0,,0.0,"[8, 2, 1, 5, 8, 8]","[3, 5, 7, 3, 4, 8]",11.5,,74.0,Green to Orange,Pink to Blue,,,,,955.2000000178814,,,,hwrblsy3h,experiment_VB,,1034492,81,blocks-exp,
303,24.0,19.0,,0.0,"[5, 4, 6, 4, 2, 3]","[5, 1, 4, 1, 6, 2]",11.5,,74.0,Green to Orange,Pink to Blue,,,,,859.8000000119209,,,,hwrblsy3h,experiment_VB,,1036367,82,blocks-exp,
304,19.0,25.0,,1.0,"[3, 1, 1, 5, 5, 4]","[5, 6, 4, 7, 1, 2]",11.5,,74.0,Green to Orange,Pink to Blue,,,,,649.4000000059605,,,,hwrblsy3h,experiment_VB,,1038028,83,blocks-exp,
305,23.0,18.0,,1.0,"[5, 3, 3, 4, 7, 1]","[3, 1, 4, 1, 2, 7]",11.5,,70.0,Green to Orange,Pink to Blue,,,,,1002.5999999940395,,,,hwrblsy3h,experiment_VB,,1040042,84,blocks-exp,
306,31.0,27.0,,1.0,"[4, 8, 2, 4, 6, 7]","[6, 5, 3, 3, 4, 6]",11.5,,70.0,Green to Orange,Pink to Blue,,,,,826.2999999821186,,,,hwrblsy3h,experiment_VB,,1041878,85,blocks-exp,
307,31.0,22.0,,1.0,"[1, 8, 7, 2, 5, 8]","[2, 4, 2, 5, 6, 3]",11.5,,70.0,Green to Orange,Pink to Blue,,,,,609.3999999761581,,,,hwrblsy3h,experiment_VB,,1043496,86,blocks-exp,
308,23.0,19.0,,1.0,"[4, 4, 3, 1, 8, 3]","[1, 8, 2, 1, 2, 5]",11.5,,70.0,Green to Orange,Pink to Blue,,,,,925.3999999761581,,,,hwrblsy3h,experiment_VB,,1045431,87,blocks-exp,
309,34.0,31.0,,1.0,"[7, 6, 6, 2, 7, 6]","[2, 5, 2, 8, 8, 6]",11.5,,70.0,Green to Orange,Pink to Blue,,,,,577.5999999940395,,,,hwrblsy3h,experiment_VB,,1047020,88,blocks-exp,
310,31.0,34.0,,1.0,"[6, 4, 8, 2, 3, 8]","[1, 2, 8, 8, 7, 8]",11.5,,74.0,Green to Orange,Pink to Blue,,,,,765.5999999940395,,,,hwrblsy3h,experiment_VB,,1048796,89,blocks-exp,
311,22.0,39.0,,1.0,"[5, 1, 4, 3, 4, 5]","[7, 8, 3, 8, 5, 8]",11.5,,74.0,Green to Orange,Pink to Blue,,,,,792.8000000119209,,,,hwrblsy3h,experiment_VB,,1050601,90,blocks-exp,
312,31.0,20.0,,1.0,"[7, 3, 7, 8, 4, 2]","[1, 6, 4, 3, 3, 3]",11.5,,70.0,Green to Orange,Pink to Blue,,,,,607.5,,,,hwrblsy3h,experiment_VB,,1052215,91,blocks-exp,
313,29.0,34.0,,0.0,"[5, 1, 7, 6, 6, 4]","[8, 7, 6, 4, 3, 6]",11.5,,70.0,Green to Orange,Pink to Blue,,,,,1064.800000011921,,,,hwrblsy3h,experiment_VB,,1054290,92,blocks-exp,
314,32.0,29.0,,1.0,"[8, 5, 7, 3, 1, 8]","[3, 7, 6, 4, 3, 6]",11.5,,70.0,Green to Orange,Pink to Blue,,,,,599.6999999880791,,,,hwrblsy3h,experiment_VB,,1055896,93,blocks-exp,
315,35.0,24.0,,1.0,"[8, 3, 8, 5, 8, 3]","[3, 8, 5, 5, 2, 1]",11.5,,70.0,Green to Orange,Pink to Blue,,,,,666.5999999940395,,,,hwrblsy3h,experiment_VB,,1057573,94,blocks-exp,
316,36.0,29.0,,1.0,"[8, 5, 6, 6, 8, 3]","[3, 5, 7, 3, 8, 3]",11.5,,70.0,Green to Orange,Pink to Blue,,,,,627.6000000238419,,,,hwrblsy3h,experiment_VB,,1059210,95,blocks-exp,
317,18.0,20.0,,0.0,"[1, 3, 2, 3, 1, 8]","[2, 5, 4, 2, 4, 3]",11.5,,70.0,Green to Orange,Pink to Blue,,,,,881.7000000178814,,,,hwrblsy3h,experiment_VB,,1061114,96,blocks-exp,
318,29.0,21.0,,1.0,"[3, 5, 4, 4, 8, 5]","[2, 6, 1, 2, 8, 2]",11.5,,70.0,Green to Orange,Pink to Blue,,,,,1840.0,,,,hwrblsy3h,experiment_VB,,1063964,97,blocks-exp,
319,29.0,20.0,,1.0,"[2, 7, 1, 6, 5, 8]","[4, 6, 3, 3, 1, 3]",11.5,,70.0,Green to Orange,Pink to Blue,,,,,617.7000000178814,,,,hwrblsy3h,experiment_VB,,1065591,98,blocks-exp,
320,31.0,18.0,,1.0,"[8, 7, 4, 2, 8, 2]","[3, 8, 1, 4, 1, 1]",11.5,,70.0,Green to Orange,Pink to Blue,,,,,540.5,,,,hwrblsy3h,experiment_VB,,1067139,99,blocks-exp,
321,19.0,25.0,,1.0,"[2, 2, 2, 8, 1, 4]","[8, 7, 1, 3, 5, 1]",11.5,,74.0,Green to Orange,Pink to Blue,,,,,805.9000000059605,,,,hwrblsy3h,experiment_VB,,1068957,100,blocks-exp,
322,35.0,31.0,,1.0,"[7, 2, 8, 7, 8, 3]","[1, 8, 8, 4, 7, 3]",11.5,,70.0,Green to Orange,Pink to Blue,,,,,519.8000000119209,,,,hwrblsy3h,experiment_VB,,1070486,101,blocks-exp,
323,31.0,20.0,,1.0,"[3, 8, 4, 4, 6, 6]","[2, 1, 8, 4, 1, 4]",11.5,,70.0,Green to Orange,Pink to Blue,,,,,852.1000000238419,,,,hwrblsy3h,experiment_VB,,1072347,102,blocks-exp,
324,28.0,24.0,,1.0,"[6, 8, 3, 6, 1, 4]","[4, 1, 8, 1, 5, 5]",11.5,,70.0,Green to Orange,Pink to Blue,,,,,683.2000000178814,,,,hwrblsy3h,experiment_VB,,1074041,103,blocks-exp,
325,30.0,21.0,,1.0,"[3, 5, 3, 6, 7, 6]","[2, 3, 1, 5, 2, 8]",11.5,,70.0,Green to Orange,Pink to Blue,,,,,611.3000000119209,,,,hwrblsy3h,experiment_VB,,1075664,104,blocks-exp,
326,30.0,24.0,,1.0,"[5, 3, 7, 7, 7, 1]","[6, 5, 2, 1, 3, 7]",11.5,,70.0,Green to Orange,Pink to Blue,,,,,603.2999999821186,,,,hwrblsy3h,experiment_VB,,1077275,105,blocks-exp,
327,27.0,31.0,,0.0,"[4, 5, 5, 4, 8, 1]","[8, 6, 4, 2, 6, 5]",11.5,,70.0,Green to Orange,Pink to Blue,,,,,1262.9000000059605,,,,hwrblsy3h,experiment_VB,,1079551,106,blocks-exp,
328,27.0,26.0,,0.0,"[8, 7, 3, 3, 3, 3]","[7, 1, 1, 6, 5, 6]",11.5,,74.0,Green to Orange,Pink to Blue,,,,,830.6999999880791,,,,hwrblsy3h,experiment_VB,,1081391,107,blocks-exp,
329,32.0,26.0,,1.0,"[6, 3, 5, 7, 4, 7]","[2, 5, 1, 7, 3, 8]",11.5,,70.0,Green to Orange,Pink to Blue,,,,,1682.699999988079,,,,hwrblsy3h,experiment_VB,,1084096,108,blocks-exp,
330,20.0,26.0,,1.0,"[6, 3, 3, 1, 6, 1]","[8, 6, 6, 4, 1, 1]",11.5,,74.0,Green to Orange,Pink to Blue,,,,,4322.5,,,,hwrblsy3h,experiment_VB,,1089425,109,blocks-exp,
331,25.0,29.0,,1.0,"[5, 6, 2, 3, 8, 1]","[4, 1, 5, 6, 6, 7]",11.5,,74.0,Green to Orange,Pink to Blue,,,,,896.5,,,,hwrblsy3h,experiment_VB,,1091335,110,blocks-exp,
332,21.0,29.0,,1.0,"[3, 3, 7, 4, 3, 1]","[5, 1, 6, 4, 5, 8]",11.5,,74.0,Green to Orange,Pink to Blue,,,,,1687.5,,,,hwrblsy3h,experiment_VB,,1094034,111,blocks-exp,
333,22.0,15.0,,1.0,"[3, 7, 3, 2, 6, 1]","[2, 3, 1, 3, 5, 1]",11.5,,70.0,Green to Orange,Pink to Blue,,,,,1146.4000000059605,,,,hwrblsy3h,experiment_VB,,1096188,112,blocks-exp,
334,25.0,28.0,,0.0,"[7, 3, 3, 4, 4, 4]","[1, 8, 5, 3, 6, 5]",11.5,,70.0,Green to Orange,Pink to Blue,,,,,1246.4000000059605,,,,hwrblsy3h,experiment_VB,,1098446,113,blocks-exp,
335,32.0,29.0,,0.0,"[6, 8, 8, 1, 4, 5]","[8, 1, 3, 8, 7, 2]",11.5,,74.0,Green to Orange,Pink to Blue,,,,,1025.300000011921,,,,hwrblsy3h,experiment_VB,,1100482,114,blocks-exp,
336,31.0,24.0,,1.0,"[3, 6, 7, 4, 8, 3]","[2, 3, 4, 3, 8, 4]",11.5,,70.0,Green to Orange,Pink to Blue,,,,,931.3000000119209,,,,hwrblsy3h,experiment_VB,,1102418,115,blocks-exp,
337,27.0,28.0,,1.0,"[4, 1, 6, 8, 1, 7]","[2, 3, 5, 2, 8, 8]",11.5,,74.0,Green to Orange,Pink to Blue,,,,,1014.9000000059605,,,,hwrblsy3h,experiment_VB,,1104442,116,blocks-exp,
338,32.0,32.0,,0.0,"[8, 5, 6, 3, 8, 2]","[7, 7, 1, 8, 1, 8]",11.5,,74.0,Green to Orange,Pink to Blue,,,,,898.1999999880791,,,,hwrblsy3h,experiment_VB,,1106352,117,blocks-exp,
339,32.0,27.0,,1.0,"[4, 8, 3, 8, 2, 7]","[5, 8, 5, 1, 6, 2]",11.5,,70.0,Green to Orange,Pink to Blue,,,,,764.7999999821186,,,,hwrblsy3h,experiment_VB,,1108129,118,blocks-exp,
340,25.0,26.0,,1.0,"[4, 5, 2, 7, 4, 3]","[1, 2, 8, 6, 4, 5]",11.5,,74.0,Green to Orange,Pink to Blue,,,,,748.1999999880791,,,,hwrblsy3h,experiment_VB,,1109888,119,blocks-exp,
341,29.0,32.0,,1.0,"[2, 7, 8, 1, 8, 3]","[7, 5, 7, 7, 4, 2]",11.5,,74.0,Green to Orange,Pink to Blue,,,,,1209.7999999821186,,,,hwrblsy3h,experiment_VB,,1112117,120,blocks-exp,
342,29.0,33.0,,1.0,"[5, 6, 6, 1, 7, 4]","[3, 7, 6, 3, 8, 6]",11.5,,74.0,Green to Orange,Pink to Blue,,,,,2594.0,,,,hwrblsy3h,experiment_VB,,1115722,121,blocks-exp,
343,24.0,25.0,,1.0,"[5, 7, 2, 4, 1, 5]","[2, 6, 4, 7, 1, 5]",11.5,,74.0,Green to Orange,Pink to Blue,,,,,2958.0999999940395,,,,hwrblsy3h,experiment_VB,,1119692,122,blocks-exp,
344,28.0,21.0,,1.0,"[5, 8, 8, 2, 1, 4]","[2, 3, 8, 3, 1, 4]",11.5,,70.0,Green to Orange,Pink to Blue,,,,,787.6999999880791,,,,hwrblsy3h,experiment_VB,,1121491,123,blocks-exp,
345,27.0,27.0,,1.0,"[8, 3, 7, 3, 4, 2]","[4, 8, 3, 1, 4, 7]",11.5,,70.0,Green to Orange,Pink to Blue,,,,,2172.0,,,,hwrblsy3h,experiment_VB,,1124674,124,blocks-exp,
346,33.0,28.0,,1.0,"[7, 4, 5, 6, 6, 5]","[2, 3, 7, 4, 8, 4]",11.5,,70.0,Green to Orange,Pink to Blue,,,,,704.5,,,,hwrblsy3h,experiment_VB,,1126391,125,blocks-exp,
347,24.0,35.0,,1.0,"[2, 3, 3, 6, 8, 2]","[5, 2, 8, 6, 7, 7]",11.5,,74.0,Green to Orange,Pink to Blue,,,,,751.2000000178814,,,,hwrblsy3h,experiment_VB,,1128152,126,blocks-exp,
348,20.0,25.0,,1.0,"[5, 1, 1, 6, 2, 5]","[8, 5, 1, 3, 4, 4]",11.5,,74.0,Green to Orange,Pink to Blue,,,,,979.8000000119209,,,,hwrblsy3h,experiment_VB,,1130141,127,blocks-exp,
349,21.0,32.0,,1.0,"[1, 2, 8, 1, 4, 5]","[6, 6, 3, 7, 2, 8]",11.5,,74.0,Green to Orange,Pink to Blue,,,,,759.4000000059605,,,,hwrblsy3h,experiment_VB,,1131907,128,blocks-exp,
350,23.0,24.0,,1.0,"[5, 2, 6, 6, 3, 1]","[5, 1, 4, 8, 2, 4]",11.5,,74.0,Green to Orange,Pink to Blue,,,,,3307.5,,,,hwrblsy3h,experiment_VB,,1136226,129,blocks-exp,
351,22.0,17.0,,1.0,"[1, 8, 4, 5, 2, 2]","[2, 7, 5, 1, 1, 1]",11.5,,70.0,Green to Orange,Pink to Blue,,,,,1243.0999999940395,,,,hwrblsy3h,experiment_VB,,1138477,130,blocks-exp,
352,36.0,24.0,,1.0,"[3, 8, 5, 8, 5, 7]","[3, 8, 8, 1, 1, 3]",11.5,,70.0,Green to Orange,Pink to Blue,,,,,664.4000000059605,,,,hwrblsy3h,experiment_VB,,1140158,131,blocks-exp,
353,19.0,27.0,,1.0,"[6, 4, 3, 1, 3, 2]","[7, 4, 5, 2, 7, 2]",11.5,,74.0,Green to Orange,Pink to Blue,,,,,1102.800000011921,,,,hwrblsy3h,experiment_VB,,1142274,132,blocks-exp,
354,25.0,22.0,,1.0,"[2, 6, 8, 1, 3, 5]","[5, 4, 3, 2, 2, 6]",11.5,,70.0,Green to Orange,Pink to Blue,,,,,1139.9000000059605,,,,hwrblsy3h,experiment_VB,,1144424,133,blocks-exp,
355,15.0,28.0,,1.0,"[5, 3, 1, 2, 3, 1]","[8, 6, 4, 3, 3, 4]",11.5,,74.0,Green to Orange,Pink to Blue,,,,,741.4000000059605,,,,hwrblsy3h,experiment_VB,,1146174,134,blocks-exp,
356,26.0,26.0,,1.0,"[8, 5, 4, 5, 2, 2]","[6, 5, 2, 8, 1, 4]",11.5,,74.0,Green to Orange,Pink to Blue,,,,,1119.5,,,,hwrblsy3h,experiment_VB,,1148305,135,blocks-exp,
357,28.0,26.0,,1.0,"[6, 7, 2, 8, 1, 4]","[3, 8, 3, 1, 5, 6]",11.5,,70.0,Green to Orange,Pink to Blue,,,,,599.5,,,,hwrblsy3h,experiment_VB,,1149915,136,blocks-exp,
358,15.0,22.0,,1.0,"[3, 1, 2, 1, 7, 1]","[8, 2, 4, 6, 1, 1]",11.5,,74.0,Green to Orange,Pink to Blue,,,,,651.6999999880791,,,,hwrblsy3h,experiment_VB,,1151576,137,blocks-exp,
359,23.0,20.0,,1.0,"[7, 8, 1, 4, 1, 2]","[2, 2, 6, 4, 2, 4]",11.5,,70.0,Green to Orange,Pink to Blue,,,,,674.1000000238419,,,,hwrblsy3h,experiment_VB,,1153257,138,blocks-exp,
360,27.0,26.0,,0.0,"[8, 6, 6, 2, 4, 1]","[3, 8, 2, 3, 7, 3]",11.5,,74.0,Green to Orange,Pink to Blue,,,,,1134.7000000178814,,,,hwrblsy3h,experiment_VB,,1155404,139,blocks-exp,
361,22.0,30.0,,1.0,"[1, 6, 4, 1, 6, 4]","[3, 4, 8, 3, 4, 8]",11.5,,74.0,Green to Orange,Pink to Blue,,,,,874.2000000178814,,,,hwrblsy3h,experiment_VB,,1157291,140,blocks-exp,
362,26.0,32.0,,1.0,"[6, 6, 1, 8, 2, 3]","[6, 8, 2, 7, 4, 5]",11.5,,74.0,Green to Orange,Pink to Blue,,,,,855.8999999761581,,,,hwrblsy3h,experiment_VB,,1159160,141,blocks-exp,
363,29.0,35.0,,1.0,"[8, 8, 2, 1, 7, 3]","[7, 4, 4, 7, 8, 5]",11.5,,74.0,Green to Orange,Pink to Blue,,,,,1195.7999999821186,,,,hwrblsy3h,experiment_VB,,1161366,142,blocks-exp,
364,29.0,30.0,,1.0,"[5, 2, 7, 8, 5, 2]","[3, 4, 4, 3, 8, 8]",11.5,,74.0,Green to Orange,Pink to Blue,,,,,779.3000000119209,,,,hwrblsy3h,experiment_VB,,1163159,143,blocks-exp,
365,22.0,35.0,,1.0,"[1, 7, 1, 5, 7, 1]","[8, 2, 3, 6, 8, 8]",11.5,,74.0,Green to Orange,Pink to Blue,,,,,1211.800000011921,,,,hwrblsy3h,experiment_VB,,1165383,144,blocks-exp,
366,29.0,28.0,,0.0,"[8, 5, 4, 4, 4, 4]","[3, 7, 7, 8, 1, 2]",11.5,,74.0,Green to Orange,Pink to Blue,,,,,978.1999999880791,,,,hwrblsy3h,experiment_VB,,1167374,145,blocks-exp,
367,29.0,25.0,,1.0,"[6, 5, 5, 4, 3, 6]","[2, 3, 7, 4, 2, 7]",11.5,,70.0,Green to Orange,Pink to Blue,,,,,2156.699999988079,,,,hwrblsy3h,experiment_VB,,1170544,146,blocks-exp,
368,25.0,18.0,,1.0,"[7, 5, 5, 1, 5, 2]","[1, 5, 7, 1, 2, 2]",11.5,,70.0,Green to Orange,Pink to Blue,,,,,856.5,,,,hwrblsy3h,experiment_VB,,1172410,147,blocks-exp,
369,33.0,27.0,,1.0,"[6, 8, 5, 2, 4, 8]","[2, 2, 5, 7, 5, 6]",11.5,,70.0,Green to Orange,Pink to Blue,,,,,869.3000000119209,,,,hwrblsy3h,experiment_VB,,1174288,148,blocks-exp,
370,27.0,21.0,,0.0,"[7, 2, 2, 3, 8, 5]","[6, 4, 2, 1, 7, 1]",11.5,,74.0,Green to Orange,Pink to Blue,,,,,3302.5,,,,hwrblsy3h,experiment_VB,,1178601,149,blocks-exp,
371,29.0,31.0,,1.0,"[6, 3, 5, 3, 8, 4]","[7, 4, 3, 3, 6, 8]",11.5,,74.0,Green to Orange,Pink to Blue,,,,,2144.699999988079,,,,hwrblsy3h,experiment_VB,,1181759,150,blocks-exp,
372,,,,,,,11.5,,,Green to Orange,Pink to Blue,,,20,,8909.199999988079,,16.0,img/PB/27.jpg,hwrblsy3h,,,1191720,,memslider,
373,,,,,,,11.5,,,Green to Orange,Pink to Blue,,,34,,4154.300000011921,,36.0,img/PB/35.jpg,hwrblsy3h,,,1196379,,memslider,
374,,,,,,,11.5,,,Green to Orange,Pink to Blue,,,15,,3234.699999988079,,13.0,img/PB/21.jpg,hwrblsy3h,,,1200120,,memslider,
375,,,,,,,11.5,,,Green to Orange,Pink to Blue,,,20,,8120.300000011921,,32.0,img/PB/24.jpg,hwrblsy3h,,,1208747,,memslider,
376,,,,,,,11.5,,,Green to Orange,Pink to Blue,,,27,,3779.300000011921,,41.0,img/PB/29.jpg,hwrblsy3h,,,1213034,,memslider,
377,,,,,,,11.5,,,Green to Orange,Pink to Blue,,,70,,1991.5,,,img/PB/35.jpg,hwrblsy3h,,35.0,1215877,,memchoice,
378,,,,,,,11.5,,,Green to Orange,Pink to Blue,,,70,,1175.5999999940395,,,img/PB/27.jpg,hwrblsy3h,,27.0,1217560,,memchoice,
379,,,,,,,11.5,,,Green to Orange,Pink to Blue,,,74,,2102.399999976158,,,img/PB/24.jpg,hwrblsy3h,,24.0,1220170,,memchoice,
380,,,,,,,11.5,,,Green to Orange,Pink to Blue,,,74,,1333.0,,,img/PB/29.jpg,hwrblsy3h,,41.0,1222009,,memchoice,
381,,,,,,,11.5,,,Green to Orange,Pink to Blue,,,74,,2152.5999999940395,,,img/PB/21.jpg,hwrblsy3h,,7.0,1224667,,memchoice,
382,,,,,,,11.5,,,Green to Orange,Pink to Blue,,146.0,,25.0,,,,,hwrblsy3h,,,1224668,NA,reward-function,25.0
383,,,,,,,11.5,,,Green to Orange,Pink to Blue,38.0,,,,,,,,hwrblsy3h,,,1224668,NA,reward-function,21.0
384,,,,,,,11.5,,,Green to Orange,Pink to Blue,,,"{'workerID': 'N/A', 'Age': '22', 'Gender': 'Female', 'colorblind': 'Yes'}",,20268.09999999404,,,,hwrblsy3h,,,1245708,,survey-text,
0,,,,,,,12.25,Pink to Blue,,Pink to Blue,Green to Orange,,,,,,Green to Orange,,,ua60hkvff,,,11343,,call,
1,,,,,,,12.25,,,Pink to Blue,Green to Orange,,,{'payment_account': '$thatjarrett'},,18143.900000035763,,,,ua60hkvff,,,29490,,survey-text,
2,38.0,31.0,,0.0,"[8, 5, 7, 7, 5, 6]","[7, 8, 2, 2, 6, 6]",12.25,,74.0,Pink to Blue,Green to Orange,,,,,1578.6000000238419,,,,ua60hkvff,training_VB,,49993,1,blocks,
3,15.0,31.0,,0.0,"[2, 2, 2, 3, 4, 2]","[7, 6, 7, 1, 7, 3]",12.25,,70.0,Pink to Blue,Green to Orange,,,,,1588.6000000238419,,,,ua60hkvff,training_VB,,53588,2,blocks,
4,28.0,36.0,,1.0,"[1, 6, 6, 8, 4, 3]","[6, 8, 7, 6, 2, 7]",12.25,,74.0,Pink to Blue,Green to Orange,,,,,1629.199999988079,,,,ua60hkvff,training_VB,,57227,3,blocks,
5,25.0,16.0,,1.0,"[6, 2, 2, 2, 8, 5]","[1, 4, 2, 5, 2, 2]",12.25,,70.0,Pink to Blue,Green to Orange,,,,,883.8999999761581,,,,ua60hkvff,training_VB,,60116,4,blocks,
6,19.0,26.0,,1.0,"[1, 8, 2, 2, 5, 1]","[1, 2, 2, 6, 7, 8]",12.25,,74.0,Pink to Blue,Green to Orange,,,,,1624.199999988079,,,,ua60hkvff,training_VB,,63746,5,blocks,
7,24.0,25.0,,1.0,"[4, 1, 5, 8, 4, 2]","[1, 7, 4, 8, 1, 4]",12.25,,74.0,Pink to Blue,Green to Orange,,,,,4433.400000035763,,,,ua60hkvff,training_VB,,70184,6,blocks,
8,26.0,28.0,,1.0,"[7, 1, 7, 4, 2, 5]","[5, 1, 5, 7, 3, 7]",12.25,,74.0,Pink to Blue,Green to Orange,,,,,2998.100000023842,,,,ua60hkvff,training_VB,,75188,7,blocks,
9,19.0,23.0,,1.0,"[1, 1, 2, 7, 2, 6]","[2, 3, 1, 8, 6, 3]",12.25,,74.0,Pink to Blue,Green to Orange,,,,,1643.8999999761581,,,,ua60hkvff,training_VB,,78837,8,blocks,
10,36.0,29.0,,1.0,"[6, 7, 8, 3, 4, 8]","[4, 3, 8, 8, 5, 1]",12.25,,70.0,Pink to Blue,Green to Orange,,,,,1319.1000000238419,,,,ua60hkvff,training_VB,,82161,9,blocks,
11,26.0,37.0,,1.0,"[6, 1, 1, 7, 4, 7]","[7, 7, 8, 7, 6, 2]",12.25,,74.0,Pink to Blue,Green to Orange,,,,,1051.3999999761581,,,,ua60hkvff,training_VB,,85221,10,blocks,
12,33.0,29.0,,1.0,"[1, 8, 8, 3, 6, 7]","[1, 6, 6, 4, 7, 5]",12.25,,70.0,Pink to Blue,Green to Orange,,,,,843.5,,,,ua60hkvff,training_VB,,88068,11,blocks,
13,33.0,34.0,,0.0,"[4, 7, 7, 4, 4, 7]","[6, 2, 5, 8, 6, 7]",12.25,,70.0,Pink to Blue,Green to Orange,,,,,1372.1000000238419,,,,ua60hkvff,training_VB,,91448,12,blocks,
14,33.0,27.0,,1.0,"[7, 6, 2, 5, 7, 6]","[1, 3, 4, 5, 7, 7]",12.25,,70.0,Pink to Blue,Green to Orange,,,,,4173.5,,,,ua60hkvff,training_VB,,97627,13,blocks,
15,30.0,22.0,,1.0,"[7, 2, 2, 7, 4, 8]","[2, 8, 4, 1, 1, 6]",12.25,,70.0,Pink to Blue,Green to Orange,,,,,1620.8999999761581,,,,ua60hkvff,training_VB,,101253,14,blocks,
16,27.0,24.0,,1.0,"[1, 6, 7, 8, 1, 4]","[2, 2, 8, 5, 3, 4]",12.25,,70.0,Pink to Blue,Green to Orange,,,,,889.1999999880791,,,,ua60hkvff,training_VB,,104147,15,blocks,
17,17.0,23.0,,1.0,"[6, 1, 2, 2, 5, 1]","[7, 1, 5, 5, 4, 1]",12.25,,74.0,Pink to Blue,Green to Orange,,,,,1275.6000000238419,,,,ua60hkvff,training_VB,,107442,16,blocks,
18,28.0,26.0,,1.0,"[5, 7, 4, 7, 3, 2]","[5, 1, 2, 4, 6, 8]",12.25,,70.0,Pink to Blue,Green to Orange,,,,,1839.800000011921,,,,ua60hkvff,training_VB,,111294,17,blocks,
19,38.0,28.0,,1.0,"[5, 6, 7, 4, 8, 8]","[5, 7, 3, 5, 3, 5]",12.25,,70.0,Pink to Blue,Green to Orange,,,,,982.1000000238419,,,,ua60hkvff,training_VB,,114291,18,blocks,
20,33.0,31.0,,1.0,"[4, 3, 8, 7, 6, 5]","[3, 7, 6, 3, 6, 6]",12.25,,70.0,Pink to Blue,Green to Orange,,,,,3368.800000011921,,,,ua60hkvff,training_VB,,119665,19,blocks,
21,28.0,24.0,,1.0,"[5, 6, 6, 4, 5, 2]","[3, 5, 6, 1, 4, 5]",12.25,,70.0,Pink to Blue,Green to Orange,,,,,1728.699999988079,,,,ua60hkvff,training_VB,,123398,20,blocks,
22,16.0,29.0,,1.0,"[4, 1, 2, 6, 2, 1]","[3, 7, 3, 1, 8, 7]",12.25,,74.0,Pink to Blue,Green to Orange,,,,,1227.5,,,,ua60hkvff,training_VB,,126631,21,blocks,
23,39.0,27.0,,1.0,"[8, 8, 4, 4, 8, 7]","[1, 5, 7, 6, 2, 6]",12.25,,70.0,Pink to Blue,Green to Orange,,,,,931.5999999642372,,,,ua60hkvff,training_VB,,129567,22,blocks,
24,15.0,27.0,,1.0,"[1, 1, 2, 7, 2, 2]","[5, 7, 4, 6, 2, 3]",12.25,,74.0,Pink to Blue,Green to Orange,,,,,774.3000000119209,,,,ua60hkvff,training_VB,,132346,23,blocks,
25,26.0,22.0,,1.0,"[3, 3, 4, 7, 4, 5]","[4, 5, 2, 1, 7, 3]",12.25,,70.0,Pink to Blue,Green to Orange,,,,,4544.900000035763,,,,ua60hkvff,training_VB,,138899,24,blocks,
26,21.0,22.0,,0.0,"[4, 1, 4, 2, 4, 6]","[2, 3, 2, 5, 4, 6]",12.25,,70.0,Pink to Blue,Green to Orange,,,,,895.1999999880791,,,,ua60hkvff,training_VB,,141807,25,blocks,
27,27.0,26.0,,1.0,"[2, 4, 5, 7, 5, 4]","[1, 2, 7, 2, 8, 6]",12.25,,70.0,Pink to Blue,Green to Orange,,,,,1446.0,,,,ua60hkvff,training_VB,,145269,26,blocks,
28,30.0,24.0,,1.0,"[4, 8, 6, 2, 2, 8]","[1, 7, 5, 6, 2, 3]",12.25,,70.0,Pink to Blue,Green to Orange,,,,,1702.8999999761581,,,,ua60hkvff,training_VB,,148976,27,blocks,
29,25.0,30.0,,1.0,"[2, 3, 3, 7, 8, 2]","[8, 3, 3, 8, 7, 1]",12.25,,74.0,Pink to Blue,Green to Orange,,,,,2673.2000000476837,,,,ua60hkvff,training_VB,,153655,28,blocks,
30,30.0,26.0,,1.0,"[3, 8, 6, 2, 8, 3]","[8, 3, 6, 6, 1, 2]",12.25,,70.0,Pink to Blue,Green to Orange,,,,,1487.199999988079,,,,ua60hkvff,training_VB,,157148,29,blocks,
31,28.0,14.0,,1.0,"[2, 7, 2, 6, 6, 5]","[2, 1, 6, 1, 2, 2]",12.25,,70.0,Pink to Blue,Green to Orange,,,,,1019.1000000238419,,,,ua60hkvff,training_VB,,160173,30,blocks,
32,28.0,26.0,,1.0,"[3, 8, 3, 2, 7, 5]","[2, 5, 3, 5, 3, 8]",12.25,,70.0,Pink to Blue,Green to Orange,,,,,1000.5,,,,ua60hkvff,experiment_VB,,207995,1,blocks-exp,
33,30.0,24.0,,0.0,"[8, 4, 4, 7, 2, 5]","[2, 6, 6, 5, 1, 4]",12.25,,74.0,Pink to Blue,Green to Orange,,,,,1329.0,,,,ua60hkvff,experiment_VB,,210328,2,blocks-exp,
34,16.0,24.0,,1.0,"[5, 1, 5, 1, 2, 2]","[1, 6, 3, 1, 6, 7]",12.25,,74.0,Pink to Blue,Green to Orange,,,,,1203.3999999761581,,,,ua60hkvff,experiment_VB,,212536,3,blocks-exp,
35,26.0,27.0,,1.0,"[4, 4, 5, 3, 8, 2]","[3, 4, 2, 7, 6, 5]",12.25,,74.0,Pink to Blue,Green to Orange,,,,,6579.900000035763,,,,ua60hkvff,experiment_VB,,220120,4,blocks-exp,
36,29.0,24.0,,1.0,"[8, 7, 1, 5, 6, 2]","[2, 2, 3, 5, 4, 8]",12.25,,70.0,Pink to Blue,Green to Orange,,,,,1025.800000011921,,,,ua60hkvff,experiment_VB,,222163,5,blocks-exp,
37,35.0,24.0,,1.0,"[5, 6, 1, 7, 8, 8]","[2, 7, 2, 5, 6, 2]",12.25,,70.0,Pink to Blue,Green to Orange,,,,,906.5,,,,ua60hkvff,experiment_VB,,224074,6,blocks-exp,
38,29.0,21.0,,1.0,"[7, 6, 8, 3, 1, 4]","[4, 4, 1, 3, 6, 3]",12.25,,70.0,Pink to Blue,Green to Orange,,,,,831.9000000357628,,,,ua60hkvff,experiment_VB,,225915,7,blocks-exp,
39,35.0,22.0,,1.0,"[4, 7, 7, 8, 2, 7]","[2, 1, 2, 7, 8, 2]",12.25,,70.0,Pink to Blue,Green to Orange,,,,,1148.0,,,,ua60hkvff,experiment_VB,,228066,8,blocks-exp,
40,28.0,22.0,,1.0,"[7, 4, 6, 1, 3, 7]","[1, 6, 1, 5, 4, 5]",12.25,,70.0,Pink to Blue,Green to Orange,,,,,2428.900000035763,,,,ua60hkvff,experiment_VB,,231512,9,blocks-exp,
41,19.0,20.0,,1.0,"[1, 5, 3, 6, 2, 2]","[5, 1, 4, 4, 2, 4]",12.25,,74.0,Pink to Blue,Green to Orange,,,,,3040.300000011921,,,,ua60hkvff,experiment_VB,,235557,10,blocks-exp,
42,29.0,32.0,,1.0,"[5, 2, 4, 7, 7, 4]","[5, 5, 8, 7, 1, 6]",12.25,,74.0,Pink to Blue,Green to Orange,,,,,1478.6000000238419,,,,ua60hkvff,experiment_VB,,238045,11,blocks-exp,
43,35.0,30.0,,0.0,"[7, 3, 8, 8, 3, 6]","[7, 8, 6, 3, 1, 5]",12.25,,74.0,Pink to Blue,Green to Orange,,,,,983.0,,,,ua60hkvff,experiment_VB,,240033,12,blocks-exp,
44,30.0,24.0,,1.0,"[6, 6, 3, 7, 3, 5]","[2, 7, 6, 4, 3, 2]",12.25,,70.0,Pink to Blue,Green to Orange,,,,,1386.4000000357628,,,,ua60hkvff,experiment_VB,,242424,13,blocks-exp,
45,27.0,24.0,,1.0,"[7, 3, 5, 5, 2, 5]","[8, 2, 6, 3, 3, 2]",12.25,,70.0,Pink to Blue,Green to Orange,,,,,1811.7000000476837,,,,ua60hkvff,experiment_VB,,245240,14,blocks-exp,
46,29.0,35.0,,1.0,"[3, 4, 6, 4, 8, 4]","[7, 6, 4, 4, 6, 8]",12.25,,74.0,Pink to Blue,Green to Orange,,,,,2057.800000011921,,,,ua60hkvff,experiment_VB,,248301,15,blocks-exp,
47,25.0,31.0,,1.0,"[8, 1, 6, 4, 3, 3]","[2, 8, 3, 2, 8, 8]",12.25,,74.0,Pink to Blue,Green to Orange,,,,,1767.6000000238419,,,,ua60hkvff,experiment_VB,,251076,16,blocks-exp,
48,24.0,27.0,,1.0,"[2, 2, 6, 2, 7, 5]","[4, 6, 1, 6, 5, 5]",12.25,,74.0,Pink to Blue,Green to Orange,,,,,1309.699999988079,,,,ua60hkvff,experiment_VB,,253389,17,blocks-exp,
49,23.0,34.0,,1.0,"[2, 6, 5, 3, 1, 6]","[2, 7, 8, 5, 6, 6]",12.25,,74.0,Pink to Blue,Green to Orange,,,,,848.6000000238419,,,,ua60hkvff,experiment_VB,,255243,18,blocks-exp,
50,18.0,25.0,,1.0,"[4, 5, 2, 2, 2, 3]","[1, 6, 8, 3, 3, 4]",12.25,,74.0,Pink to Blue,Green to Orange,,,,,2359.0,,,,ua60hkvff,experiment_VB,,258606,19,blocks-exp,
51,41.0,19.0,,1.0,"[6, 8, 8, 6, 6, 7]","[1, 5, 2, 5, 4, 2]",12.25,,70.0,Pink to Blue,Green to Orange,,,,,724.5,,,,ua60hkvff,experiment_VB,,260334,20,blocks-exp,
52,29.0,26.0,,1.0,"[6, 5, 7, 3, 6, 2]","[5, 5, 8, 1, 4, 3]",12.25,,70.0,Pink to Blue,Green to Orange,,,,,1241.699999988079,,,,ua60hkvff,experiment_VB,,262585,21,blocks-exp,
53,26.0,27.0,,1.0,"[1, 6, 5, 4, 3, 7]","[6, 4, 4, 5, 3, 5]",12.25,,74.0,Pink to Blue,Green to Orange,,,,,1550.4000000357628,,,,ua60hkvff,experiment_VB,,265141,22,blocks-exp,
54,34.0,21.0,,1.0,"[7, 6, 8, 5, 6, 2]","[1, 4, 3, 5, 3, 5]",12.25,,70.0,Pink to Blue,Green to Orange,,,,,1030.1000000238419,,,,ua60hkvff,experiment_VB,,267188,23,blocks-exp,
55,26.0,25.0,,1.0,"[4, 6, 2, 6, 2, 6]","[6, 2, 7, 8, 1, 1]",12.25,,70.0,Pink to Blue,Green to Orange,,,,,1182.7999999523163,,,,ua60hkvff,experiment_VB,,269389,24,blocks-exp,
56,23.0,29.0,,1.0,"[4, 4, 4, 1, 4, 6]","[8, 6, 6, 6, 1, 2]",12.25,,74.0,Pink to Blue,Green to Orange,,,,,547.3999999761581,,,,ua60hkvff,experiment_VB,,270940,25,blocks-exp,
57,26.0,23.0,,1.0,"[7, 3, 7, 6, 2, 1]","[3, 4, 1, 8, 4, 3]",12.25,,70.0,Pink to Blue,Green to Orange,,,,,893.6999999880791,,,,ua60hkvff,experiment_VB,,272848,26,blocks-exp,
58,16.0,17.0,,0.0,"[1, 2, 1, 6, 5, 1]","[6, 4, 3, 2, 1, 1]",12.25,,70.0,Pink to Blue,Green to Orange,,,,,757.3000000119209,,,,ua60hkvff,experiment_VB,,274609,27,blocks-exp,
59,26.0,26.0,,0.0,"[7, 5, 4, 1, 2, 7]","[1, 6, 3, 7, 4, 5]",12.25,,70.0,Pink to Blue,Green to Orange,,,,,675.3999999761581,,,,ua60hkvff,experiment_VB,,276288,28,blocks-exp,
60,28.0,31.0,,0.0,"[7, 1, 5, 1, 6, 8]","[8, 5, 8, 1, 4, 5]",12.25,,70.0,Pink to Blue,Green to Orange,,,,,1008.8000000119209,,,,ua60hkvff,experiment_VB,,278300,29,blocks-exp,
61,23.0,17.0,,1.0,"[1, 8, 4, 3, 6, 1]","[3, 3, 5, 2, 3, 1]",12.25,,70.0,Pink to Blue,Green to Orange,,,,,1152.8999999761581,,,,ua60hkvff,experiment_VB,,280465,30,blocks-exp,
62,29.0,22.0,,1.0,"[3, 8, 6, 2, 5, 5]","[2, 3, 5, 4, 6, 2]",12.25,,70.0,Pink to Blue,Green to Orange,,,,,659.6999999880791,,,,ua60hkvff,experiment_VB,,282129,31,blocks-exp,
63,28.0,27.0,,1.0,"[6, 3, 3, 7, 5, 4]","[5, 1, 4, 3, 6, 8]",12.25,,70.0,Pink to Blue,Green to Orange,,,,,835.1000000238419,,,,ua60hkvff,experiment_VB,,283968,32,blocks-exp,
64,28.0,20.0,,1.0,"[4, 7, 6, 2, 3, 6]","[4, 3, 1, 3, 2, 7]",12.25,,70.0,Pink to Blue,Green to Orange,,,,,683.3999999761581,,,,ua60hkvff,experiment_VB,,285668,33,blocks-exp,
65,27.0,13.0,,1.0,"[6, 4, 5, 3, 5, 4]","[3, 1, 1, 1, 4, 3]",12.25,,70.0,Pink to Blue,Green to Orange,,,,,876.3999999761581,,,,ua60hkvff,experiment_VB,,287549,34,blocks-exp,
66,27.0,27.0,,1.0,"[8, 4, 3, 4, 2, 6]","[3, 6, 3, 5, 4, 6]",12.25,,70.0,Pink to Blue,Green to Orange,,,,,1708.0,,,,ua60hkvff,experiment_VB,,290261,35,blocks-exp,
67,20.0,27.0,,1.0,"[5, 1, 3, 3, 6, 2]","[7, 8, 1, 1, 2, 8]",12.25,,74.0,Pink to Blue,Green to Orange,,,,,1324.199999988079,,,,ua60hkvff,experiment_VB,,292589,36,blocks-exp,
68,24.0,32.0,,1.0,"[1, 7, 6, 2, 6, 2]","[4, 3, 5, 8, 4, 8]",12.25,,74.0,Pink to Blue,Green to Orange,,,,,1293.800000011921,,,,ua60hkvff,experiment_VB,,294888,37,blocks-exp,
69,22.0,26.0,,0.0,"[3, 5, 3, 7, 3, 1]","[4, 3, 4, 4, 3, 8]",12.25,,70.0,Pink to Blue,Green to Orange,,,,,1066.199999988079,,,,ua60hkvff,experiment_VB,,296964,38,blocks-exp,
70,25.0,33.0,,1.0,"[6, 1, 1, 7, 8, 2]","[6, 6, 6, 5, 2, 8]",12.25,,74.0,Pink to Blue,Green to Orange,,,,,887.5999999642372,,,,ua60hkvff,experiment_VB,,298855,39,blocks-exp,
71,26.0,23.0,,1.0,"[4, 7, 5, 6, 3, 1]","[5, 1, 6, 1, 2, 8]",12.25,,70.0,Pink to Blue,Green to Orange,,,,,1198.699999988079,,,,ua60hkvff,experiment_VB,,301061,40,blocks-exp,
72,35.0,30.0,,1.0,"[8, 5, 3, 4, 8, 7]","[6, 6, 8, 7, 1, 2]",12.25,,70.0,Pink to Blue,Green to Orange,,,,,972.9000000357628,,,,ua60hkvff,experiment_VB,,303044,41,blocks-exp,
73,33.0,30.0,,0.0,"[7, 4, 8, 4, 2, 8]","[6, 4, 7, 1, 6, 6]",12.25,,74.0,Pink to Blue,Green to Orange,,,,,1710.300000011921,,,,ua60hkvff,experiment_VB,,305758,42,blocks-exp,
74,33.0,23.0,,1.0,"[5, 4, 7, 4, 8, 5]","[4, 2, 5, 1, 8, 3]",12.25,,70.0,Pink to Blue,Green to Orange,,,,,941.0,,,,ua60hkvff,experiment_VB,,307704,43,blocks-exp,
75,22.0,26.0,,0.0,"[3, 7, 2, 4, 5, 1]","[6, 8, 6, 3, 1, 2]",12.25,,70.0,Pink to Blue,Green to Orange,,,,,1297.300000011921,,,,ua60hkvff,experiment_VB,,310005,44,blocks-exp,
76,22.0,25.0,,1.0,"[2, 1, 8, 2, 8, 1]","[8, 3, 4, 4, 3, 3]",12.25,,74.0,Pink to Blue,Green to Orange,,,,,1192.199999988079,,,,ua60hkvff,experiment_VB,,312202,45,blocks-exp,
77,30.0,26.0,,1.0,"[8, 5, 3, 1, 7, 6]","[3, 1, 8, 6, 7, 1]",12.25,,70.0,Pink to Blue,Green to Orange,,,,,3244.099999964237,,,,ua60hkvff,experiment_VB,,316459,46,blocks-exp,
78,35.0,22.0,,1.0,"[7, 4, 6, 7, 8, 3]","[2, 4, 6, 1, 3, 6]",12.25,,70.0,Pink to Blue,Green to Orange,,,,,1341.0999999642372,,,,ua60hkvff,experiment_VB,,318804,47,blocks-exp,
79,25.0,25.0,,1.0,"[2, 4, 7, 6, 1, 5]","[5, 3, 7, 3, 1, 6]",12.25,,74.0,Pink to Blue,Green to Orange,,,,,2906.0,,,,ua60hkvff,experiment_VB,,322715,48,blocks-exp,
80,31.0,25.0,,1.0,"[1, 4, 6, 6, 7, 7]","[2, 4, 5, 4, 7, 3]",12.25,,70.0,Pink to Blue,Green to Orange,,,,,1494.0,,,,ua60hkvff,experiment_VB,,325213,49,blocks-exp,
81,20.0,17.0,,1.0,"[4, 3, 2, 6, 2, 3]","[1, 4, 1, 2, 2, 7]",12.25,,70.0,Pink to Blue,Green to Orange,,,,,1647.0,,,,ua60hkvff,experiment_VB,,327876,50,blocks-exp,
82,34.0,26.0,,1.0,"[8, 4, 7, 5, 5, 5]","[6, 1, 6, 1, 8, 4]",12.25,,70.0,Pink to Blue,Green to Orange,,,,,1414.4000000357628,,,,ua60hkvff,experiment_VB,,330303,51,blocks-exp,
83,34.0,31.0,,1.0,"[8, 8, 4, 7, 5, 2]","[4, 4, 8, 5, 3, 7]",12.25,,70.0,Pink to Blue,Green to Orange,,,,,1201.0999999642372,,,,ua60hkvff,experiment_VB,,332518,52,blocks-exp,
84,20.0,25.0,,1.0,"[1, 1, 2, 4, 5, 7]","[3, 3, 3, 2, 6, 8]",12.25,,74.0,Pink to Blue,Green to Orange,,,,,1851.3999999761581,,,,ua60hkvff,experiment_VB,,335373,53,blocks-exp,
85,28.0,28.0,,0.0,"[1, 6, 8, 5, 5, 3]","[6, 1, 8, 3, 5, 5]",12.25,,70.0,Pink to Blue,Green to Orange,,,,,1906.5,,,,ua60hkvff,experiment_VB,,338284,54,blocks-exp,
86,25.0,30.0,,1.0,"[4, 5, 4, 3, 2, 7]","[4, 5, 2, 7, 6, 6]",12.25,,74.0,Pink to Blue,Green to Orange,,,,,887.1999999880791,,,,ua60hkvff,experiment_VB,,340176,55,blocks-exp,
87,27.0,19.0,,1.0,"[5, 6, 2, 8, 2, 4]","[4, 3, 2, 1, 3, 6]",12.25,,70.0,Pink to Blue,Green to Orange,,,,,1880.0999999642372,,,,ua60hkvff,experiment_VB,,343061,56,blocks-exp,
88,20.0,29.0,,1.0,"[6, 4, 2, 1, 6, 1]","[5, 7, 4, 7, 3, 3]",12.25,,74.0,Pink to Blue,Green to Orange,,,,,1062.699999988079,,,,ua60hkvff,experiment_VB,,345128,57,blocks-exp,
89,26.0,23.0,,1.0,"[3, 5, 3, 5, 7, 3]","[3, 1, 6, 5, 4, 4]",12.25,,70.0,Pink to Blue,Green to Orange,,,,,1651.699999988079,,,,ua60hkvff,experiment_VB,,347783,58,blocks-exp,
90,19.0,36.0,,1.0,"[6, 2, 2, 3, 5, 1]","[4, 8, 8, 1, 7, 8]",12.25,,74.0,Pink to Blue,Green to Orange,,,,,812.1000000238419,,,,ua60hkvff,experiment_VB,,349599,59,blocks-exp,
91,37.0,31.0,,1.0,"[4, 7, 8, 6, 6, 6]","[1, 2, 6, 6, 8, 8]",12.25,,70.0,Pink to Blue,Green to Orange,,,,,1603.4000000357628,,,,ua60hkvff,experiment_VB,,352206,60,blocks-exp,
92,20.0,14.0,,1.0,"[2, 4, 8, 1, 3, 2]","[4, 3, 2, 1, 1, 3]",12.25,,70.0,Pink to Blue,Green to Orange,,,,,946.6999999880791,,,,ua60hkvff,experiment_VB,,354157,61,blocks-exp,
93,26.0,24.0,,1.0,"[4, 8, 6, 4, 2, 2]","[5, 5, 1, 7, 1, 5]",12.25,,70.0,Pink to Blue,Green to Orange,,,,,989.5,,,,ua60hkvff,experiment_VB,,356153,62,blocks-exp,
94,28.0,19.0,,1.0,"[5, 3, 8, 3, 3, 6]","[5, 2, 2, 5, 4, 1]",12.25,,70.0,Pink to Blue,Green to Orange,,,,,993.8000000119209,,,,ua60hkvff,experiment_VB,,358150,63,blocks-exp,
95,18.0,21.0,,1.0,"[3, 3, 3, 5, 3, 1]","[4, 3, 3, 5, 1, 5]",12.25,,74.0,Pink to Blue,Green to Orange,,,,,1273.4000000357628,,,,ua60hkvff,experiment_VB,,360442,64,blocks-exp,
96,27.0,12.0,,1.0,"[6, 1, 5, 5, 7, 3]","[2, 1, 1, 3, 2, 3]",12.25,,70.0,Pink to Blue,Green to Orange,,,,,684.0,,,,ua60hkvff,experiment_VB,,362136,65,blocks-exp,
97,31.0,18.0,,1.0,"[5, 8, 6, 3, 5, 4]","[1, 1, 4, 1, 3, 8]",12.25,,70.0,Pink to Blue,Green to Orange,,,,,747.6000000238419,,,,ua60hkvff,experiment_VB,,363887,66,blocks-exp,
98,42.0,33.0,,1.0,"[7, 8, 7, 8, 7, 5]","[7, 6, 7, 1, 8, 4]",12.25,,70.0,Pink to Blue,Green to Orange,,,,,902.1999999880791,,,,ua60hkvff,experiment_VB,,365794,67,blocks-exp,
99,27.0,33.0,,1.0,"[1, 3, 4, 8, 8, 3]","[7, 3, 5, 7, 5, 6]",12.25,,74.0,Pink to Blue,Green to Orange,,,,,924.1999999880791,,,,ua60hkvff,experiment_VB,,367722,68,blocks-exp,
100,27.0,23.0,,1.0,"[2, 2, 8, 6, 5, 4]","[1, 1, 7, 4, 6, 4]",12.25,,70.0,Pink to Blue,Green to Orange,,,,,878.3999999761581,,,,ua60hkvff,experiment_VB,,369610,69,blocks-exp,
101,27.0,38.0,,1.0,"[7, 2, 6, 6, 3, 3]","[8, 7, 7, 5, 3, 8]",12.25,,74.0,Pink to Blue,Green to Orange,,,,,553.3000000119209,,,,ua60hkvff,experiment_VB,,371170,70,blocks-exp,
102,32.0,21.0,,1.0,"[7, 6, 4, 3, 6, 6]","[1, 8, 6, 1, 2, 3]",12.25,,70.0,Pink to Blue,Green to Orange,,,,,553.3000000119209,,,,ua60hkvff,experiment_VB,,372733,71,blocks-exp,
103,25.0,25.0,,0.0,"[5, 2, 4, 6, 2, 6]","[8, 6, 4, 4, 1, 2]",12.25,,70.0,Pink to Blue,Green to Orange,,,,,853.5,,,,ua60hkvff,experiment_VB,,374601,72,blocks-exp,
104,20.0,27.0,,1.0,"[1, 7, 4, 2, 1, 5]","[1, 6, 2, 6, 6, 6]",12.25,,74.0,Pink to Blue,Green to Orange,,,,,533.3999999761581,,,,ua60hkvff,experiment_VB,,376138,73,blocks-exp,
105,27.0,35.0,,1.0,"[7, 4, 4, 6, 2, 4]","[7, 8, 3, 8, 3, 6]",12.25,,74.0,Pink to Blue,Green to Orange,,,,,818.8000000119209,,,,ua60hkvff,experiment_VB,,377961,74,blocks-exp,
106,18.0,13.0,,0.0,"[3, 2, 3, 4, 3, 3]","[6, 1, 2, 2, 1, 1]",12.25,,74.0,Pink to Blue,Green to Orange,,,,,921.9000000357628,,,,ua60hkvff,experiment_VB,,379888,75,blocks-exp,
107,39.0,22.0,,1.0,"[7, 3, 7, 6, 8, 8]","[2, 7, 3, 6, 2, 2]",12.25,,70.0,Pink to Blue,Green to Orange,,,,,740.8000000119209,,,,ua60hkvff,experiment_VB,,381633,76,blocks-exp,
108,22.0,29.0,,1.0,"[4, 1, 7, 3, 2, 5]","[6, 5, 1, 5, 7, 5]",12.25,,74.0,Pink to Blue,Green to Orange,,,,,803.1000000238419,,,,ua60hkvff,experiment_VB,,383441,77,blocks-exp,
109,28.0,26.0,,0.0,"[3, 4, 4, 2, 7, 8]","[7, 8, 5, 1, 4, 1]",12.25,,74.0,Pink to Blue,Green to Orange,,,,,725.3000000119209,,,,ua60hkvff,experiment_VB,,385171,78,blocks-exp,
110,29.0,26.0,,0.0,"[1, 5, 4, 7, 8, 4]","[8, 8, 2, 3, 2, 3]",12.25,,74.0,Pink to Blue,Green to Orange,,,,,1447.5,,,,ua60hkvff,experiment_VB,,387630,79,blocks-exp,
111,32.0,28.0,,1.0,"[2, 8, 4, 2, 8, 8]","[4, 8, 7, 2, 3, 4]",12.25,,70.0,Pink to Blue,Green to Orange,,,,,636.3000000119209,,,,ua60hkvff,experiment_VB,,389271,80,blocks-exp,
112,33.0,33.0,,0.0,"[1, 5, 6, 8, 5, 8]","[3, 4, 6, 7, 7, 6]",12.25,,70.0,Pink to Blue,Green to Orange,,,,,1156.4000000357628,,,,ua60hkvff,experiment_VB,,391432,81,blocks-exp,
113,21.0,32.0,,1.0,"[1, 8, 3, 4, 3, 2]","[5, 8, 4, 2, 6, 7]",12.25,,74.0,Pink to Blue,Green to Orange,,,,,1119.199999988079,,,,ua60hkvff,experiment_VB,,393557,82,blocks-exp,
114,29.0,42.0,,1.0,"[8, 3, 5, 5, 4, 4]","[8, 8, 6, 8, 6, 6]",12.25,,74.0,Pink to Blue,Green to Orange,,,,,437.2000000476837,,,,ua60hkvff,experiment_VB,,394999,83,blocks-exp,
115,25.0,20.0,,1.0,"[2, 8, 7, 1, 4, 3]","[6, 6, 2, 3, 1, 2]",12.25,,70.0,Pink to Blue,Green to Orange,,,,,711.7000000476837,,,,ua60hkvff,experiment_VB,,396714,84,blocks-exp,
116,31.0,36.0,,1.0,"[7, 3, 6, 3, 4, 8]","[5, 6, 8, 8, 2, 7]",12.25,,74.0,Pink to Blue,Green to Orange,,,,,507.0999999642372,,,,ua60hkvff,experiment_VB,,398226,85,blocks-exp,
117,28.0,26.0,,0.0,"[5, 3, 5, 6, 2, 7]","[6, 1, 2, 3, 7, 7]",12.25,,74.0,Pink to Blue,Green to Orange,,,,,935.0,,,,ua60hkvff,experiment_VB,,400165,86,blocks-exp,
118,24.0,29.0,,1.0,"[8, 4, 3, 5, 3, 1]","[7, 2, 7, 8, 4, 1]",12.25,,74.0,Pink to Blue,Green to Orange,,,,,481.89999997615814,,,,ua60hkvff,experiment_VB,,401651,87,blocks-exp,
119,44.0,25.0,,1.0,"[8, 8, 6, 8, 6, 8]","[8, 3, 5, 4, 3, 2]",12.25,,70.0,Pink to Blue,Green to Orange,,,,,475.19999998807907,,,,ua60hkvff,experiment_VB,,403130,88,blocks-exp,
120,16.0,29.0,,1.0,"[6, 3, 1, 4, 1, 1]","[6, 5, 3, 6, 2, 7]",12.25,,74.0,Pink to Blue,Green to Orange,,,,,623.7000000476837,,,,ua60hkvff,experiment_VB,,404758,89,blocks-exp,
121,21.0,19.0,,1.0,"[6, 7, 1, 3, 1, 3]","[4, 5, 4, 2, 1, 3]",12.25,,70.0,Pink to Blue,Green to Orange,,,,,843.8000000119209,,,,ua60hkvff,experiment_VB,,406607,90,blocks-exp,
122,25.0,27.0,,1.0,"[4, 3, 6, 8, 2, 2]","[7, 7, 4, 4, 1, 4]",12.25,,74.0,Pink to Blue,Green to Orange,,,,,486.19999998807907,,,,ua60hkvff,experiment_VB,,408096,91,blocks-exp,
123,33.0,28.0,,1.0,"[8, 7, 7, 2, 4, 5]","[7, 5, 3, 2, 3, 8]",12.25,,70.0,Pink to Blue,Green to Orange,,,,,581.6999999880791,,,,ua60hkvff,experiment_VB,,409682,92,blocks-exp,
124,27.0,19.0,,1.0,"[1, 6, 6, 3, 8, 3]","[3, 1, 6, 4, 4, 1]",12.25,,70.0,Pink to Blue,Green to Orange,,,,,517.6999999880791,,,,ua60hkvff,experiment_VB,,411216,93,blocks-exp,
125,27.0,22.0,,1.0,"[5, 2, 7, 6, 5, 2]","[3, 1, 5, 6, 1, 6]",12.25,,70.0,Pink to Blue,Green to Orange,,,,,620.0,,,,ua60hkvff,experiment_VB,,412840,94,blocks-exp,
126,30.0,33.0,,0.0,"[6, 1, 3, 7, 5, 8]","[5, 3, 8, 6, 7, 4]",12.25,,70.0,Pink to Blue,Green to Orange,,,,,577.1000000238419,,,,ua60hkvff,experiment_VB,,414423,95,blocks-exp,
127,17.0,34.0,,1.0,"[4, 4, 1, 1, 1, 6]","[5, 2, 8, 7, 8, 4]",12.25,,74.0,Pink to Blue,Green to Orange,,,,,540.1999999880791,,,,ua60hkvff,experiment_VB,,415968,96,blocks-exp,
128,35.0,22.0,,1.0,"[8, 5, 7, 8, 1, 6]","[2, 8, 4, 4, 3, 1]",12.25,,70.0,Pink to Blue,Green to Orange,,,,,607.4000000357628,,,,ua60hkvff,experiment_VB,,417580,97,blocks-exp,
129,17.0,22.0,,1.0,"[2, 3, 2, 6, 1, 3]","[7, 2, 4, 4, 3, 2]",12.25,,74.0,Pink to Blue,Green to Orange,,,,,709.8000000119209,,,,ua60hkvff,experiment_VB,,419295,98,blocks-exp,
130,22.0,34.0,,1.0,"[6, 1, 3, 1, 6, 5]","[5, 8, 7, 4, 3, 7]",12.25,,74.0,Pink to Blue,Green to Orange,,,,,544.0,,,,ua60hkvff,experiment_VB,,420848,99,blocks-exp,
131,31.0,25.0,,1.0,"[3, 6, 2, 7, 5, 8]","[8, 6, 4, 4, 1, 2]",12.25,,70.0,Pink to Blue,Green to Orange,,,,,982.4000000357628,,,,ua60hkvff,experiment_VB,,422847,100,blocks-exp,
132,34.0,27.0,,1.0,"[6, 1, 7, 6, 6, 8]","[3, 7, 6, 8, 2, 1]",12.25,,70.0,Pink to Blue,Green to Orange,,,,,558.6000000238419,,,,ua60hkvff,experiment_VB,,424412,101,blocks-exp,
133,25.0,33.0,,1.0,"[2, 3, 6, 1, 6, 7]","[5, 8, 8, 1, 7, 4]",12.25,,74.0,Pink to Blue,Green to Orange,,,,,738.1999999880791,,,,ua60hkvff,experiment_VB,,426154,102,blocks-exp,
134,23.0,33.0,,1.0,"[8, 2, 2, 1, 4, 6]","[6, 6, 5, 7, 8, 1]",12.25,,74.0,Pink to Blue,Green to Orange,,,,,554.6999999880791,,,,ua60hkvff,experiment_VB,,427714,103,blocks-exp,
135,20.0,33.0,,1.0,"[5, 2, 3, 1, 7, 2]","[6, 7, 7, 2, 4, 7]",12.25,,74.0,Pink to Blue,Green to Orange,,,,,475.4000000357628,,,,ua60hkvff,experiment_VB,,429198,104,blocks-exp,
136,19.0,17.0,,1.0,"[2, 2, 4, 4, 5, 2]","[3, 6, 1, 2, 4, 1]",12.25,,70.0,Pink to Blue,Green to Orange,,,,,1601.6000000238419,,,,ua60hkvff,experiment_VB,,431805,105,blocks-exp,
137,25.0,32.0,,1.0,"[6, 3, 1, 6, 6, 3]","[8, 2, 1, 5, 8, 8]",12.25,,74.0,Pink to Blue,Green to Orange,,,,,561.8000000119209,,,,ua60hkvff,experiment_VB,,433371,106,blocks-exp,
138,29.0,28.0,,0.0,"[3, 7, 7, 5, 3, 4]","[2, 6, 2, 6, 6, 6]",12.25,,74.0,Pink to Blue,Green to Orange,,,,,983.9000000357628,,,,ua60hkvff,experiment_VB,,435359,107,blocks-exp,
139,23.0,19.0,,1.0,"[1, 6, 2, 2, 8, 4]","[3, 2, 3, 1, 3, 7]",12.25,,70.0,Pink to Blue,Green to Orange,,,,,1052.1000000238419,,,,ua60hkvff,experiment_VB,,437415,108,blocks-exp,
140,33.0,29.0,,1.0,"[7, 2, 7, 5, 7, 5]","[2, 7, 4, 5, 4, 7]",12.25,,70.0,Pink to Blue,Green to Orange,,,,,788.7000000476837,,,,ua60hkvff,experiment_VB,,439208,109,blocks-exp,
141,27.0,19.0,,1.0,"[4, 6, 2, 8, 5, 2]","[2, 7, 1, 2, 2, 5]",12.25,,70.0,Pink to Blue,Green to Orange,,,,,733.8000000119209,,,,ua60hkvff,experiment_VB,,440945,110,blocks-exp,
142,33.0,23.0,,1.0,"[8, 7, 6, 6, 3, 3]","[2, 3, 1, 8, 4, 5]",12.25,,70.0,Pink to Blue,Green to Orange,,,,,513.0999999642372,,,,ua60hkvff,experiment_VB,,442462,111,blocks-exp,
143,22.0,30.0,,1.0,"[2, 3, 3, 3, 5, 6]","[8, 5, 3, 7, 5, 2]",12.25,,74.0,Pink to Blue,Green to Orange,,,,,363.89999997615814,,,,ua60hkvff,experiment_VB,,443830,112,blocks-exp,
144,28.0,24.0,,0.0,"[7, 6, 4, 4, 3, 4]","[4, 5, 1, 2, 6, 6]",12.25,,74.0,Pink to Blue,Green to Orange,,,,,550.1000000238419,,,,ua60hkvff,experiment_VB,,445384,113,blocks-exp,
145,38.0,30.0,,0.0,"[5, 8, 8, 6, 4, 7]","[7, 6, 8, 3, 2, 4]",12.25,,74.0,Pink to Blue,Green to Orange,,,,,441.30000001192093,,,,ua60hkvff,experiment_VB,,446840,114,blocks-exp,
146,28.0,24.0,,1.0,"[5, 8, 8, 3, 3, 1]","[4, 4, 2, 8, 3, 3]",12.25,,70.0,Pink to Blue,Green to Orange,,,,,444.9000000357628,,,,ua60hkvff,experiment_VB,,448288,115,blocks-exp,
147,16.0,28.0,,1.0,"[2, 5, 4, 2, 2, 1]","[3, 6, 4, 3, 7, 5]",12.25,,74.0,Pink to Blue,Green to Orange,,,,,565.8000000119209,,,,ua60hkvff,experiment_VB,,449857,116,blocks-exp,
148,26.0,26.0,,0.0,"[4, 2, 5, 1, 7, 7]","[8, 1, 8, 3, 3, 3]",12.25,,74.0,Pink to Blue,Green to Orange,,,,,827.5999999642372,,,,ua60hkvff,experiment_VB,,451689,117,blocks-exp,
149,29.0,30.0,,1.0,"[7, 3, 3, 8, 6, 2]","[7, 7, 3, 3, 3, 7]",12.25,,74.0,Pink to Blue,Green to Orange,,,,,637.5999999642372,,,,ua60hkvff,experiment_VB,,453331,118,blocks-exp,
150,18.0,19.0,,1.0,"[1, 2, 1, 1, 6, 7]","[6, 1, 2, 8, 1, 1]",12.25,,74.0,Pink to Blue,Green to Orange,,,,,944.7999999523163,,,,ua60hkvff,experiment_VB,,455279,119,blocks-exp,
151,19.0,26.0,,1.0,"[6, 4, 2, 1, 1, 5]","[3, 8, 4, 6, 3, 2]",12.25,,74.0,Pink to Blue,Green to Orange,,,,,516.3000000119209,,,,ua60hkvff,experiment_VB,,456800,120,blocks-exp,
152,28.0,26.0,,0.0,"[4, 4, 1, 6, 8, 5]","[7, 3, 2, 5, 3, 6]",12.25,,74.0,Pink to Blue,Green to Orange,,,,,712.8999999761581,,,,ua60hkvff,experiment_VB,,458517,121,blocks-exp,
153,35.0,27.0,,1.0,"[7, 5, 7, 8, 6, 2]","[5, 2, 8, 5, 3, 4]",12.25,,70.0,Pink to Blue,Green to Orange,,,,,439.19999998807907,,,,ua60hkvff,experiment_VB,,459960,122,blocks-exp,
154,33.0,34.0,,1.0,"[5, 8, 3, 7, 5, 5]","[7, 7, 6, 5, 7, 2]",12.25,,74.0,Pink to Blue,Green to Orange,,,,,412.69999998807907,,,,ua60hkvff,experiment_VB,,461377,123,blocks-exp,
155,33.0,25.0,,1.0,"[4, 8, 2, 7, 5, 7]","[8, 6, 4, 1, 3, 3]",12.25,,70.0,Pink to Blue,Green to Orange,,,,,847.6000000238419,,,,ua60hkvff,experiment_VB,,463229,124,blocks-exp,
156,31.0,25.0,,1.0,"[7, 6, 3, 4, 4, 7]","[4, 3, 3, 5, 7, 3]",12.25,,70.0,Pink to Blue,Green to Orange,,,,,463.0,,,,ua60hkvff,experiment_VB,,464697,125,blocks-exp,
157,25.0,18.0,,1.0,"[5, 8, 3, 4, 1, 4]","[1, 8, 1, 1, 1, 6]",12.25,,70.0,Pink to Blue,Green to Orange,,,,,685.6000000238419,,,,ua60hkvff,experiment_VB,,466387,126,blocks-exp,
158,24.0,24.0,,0.0,"[3, 6, 3, 3, 8, 1]","[4, 1, 2, 8, 4, 5]",12.25,,70.0,Pink to Blue,Green to Orange,,,,,643.1000000238419,,,,ua60hkvff,experiment_VB,,468040,127,blocks-exp,
159,31.0,27.0,,1.0,"[8, 8, 2, 5, 7, 1]","[8, 8, 1, 4, 5, 1]",12.25,,70.0,Pink to Blue,Green to Orange,,,,,879.1000000238419,,,,ua60hkvff,experiment_VB,,469924,128,blocks-exp,
160,37.0,30.0,,1.0,"[7, 8, 3, 6, 7, 6]","[4, 6, 4, 7, 7, 2]",12.25,,70.0,Pink to Blue,Green to Orange,,,,,640.5,,,,ua60hkvff,experiment_VB,,471569,129,blocks-exp,
161,35.0,36.0,,1.0,"[8, 5, 6, 6, 2, 8]","[7, 6, 8, 5, 4, 6]",12.25,,74.0,Pink to Blue,Green to Orange,,,,,576.8999999761581,,,,ua60hkvff,experiment_VB,,473153,130,blocks-exp,
162,29.0,23.0,,1.0,"[8, 7, 7, 4, 2, 1]","[1, 8, 4, 6, 3, 1]",12.25,,70.0,Pink to Blue,Green to Orange,,,,,458.5,,,,ua60hkvff,experiment_VB,,474627,131,blocks-exp,
163,22.0,31.0,,1.0,"[4, 2, 2, 8, 1, 5]","[4, 3, 7, 4, 8, 5]",12.25,,74.0,Pink to Blue,Green to Orange,,,,,701.6000000238419,,,,ua60hkvff,experiment_VB,,476332,132,blocks-exp,
164,27.0,32.0,,1.0,"[1, 8, 8, 2, 3, 5]","[7, 1, 3, 8, 8, 5]",12.25,,74.0,Pink to Blue,Green to Orange,,,,,697.0,,,,ua60hkvff,experiment_VB,,478035,133,blocks-exp,
165,18.0,33.0,,1.0,"[7, 1, 1, 5, 3, 1]","[7, 8, 5, 5, 6, 2]",12.25,,74.0,Pink to Blue,Green to Orange,,,,,447.5,,,,ua60hkvff,experiment_VB,,479488,134,blocks-exp,
166,33.0,17.0,,1.0,"[2, 8, 8, 4, 8, 3]","[5, 5, 1, 1, 4, 1]",12.25,,70.0,Pink to Blue,Green to Orange,,,,,486.9000000357628,,,,ua60hkvff,experiment_VB,,480987,135,blocks-exp,
167,24.0,20.0,,1.0,"[4, 2, 7, 2, 1, 8]","[1, 7, 3, 7, 1, 1]",12.25,,70.0,Pink to Blue,Green to Orange,,,,,566.2000000476837,,,,ua60hkvff,experiment_VB,,482557,136,blocks-exp,
168,27.0,29.0,,1.0,"[4, 6, 6, 3, 6, 2]","[6, 6, 3, 7, 5, 2]",12.25,,74.0,Pink to Blue,Green to Orange,,,,,960.2999999523163,,,,ua60hkvff,experiment_VB,,484522,137,blocks-exp,
169,27.0,34.0,,1.0,"[5, 3, 4, 5, 3, 7]","[4, 7, 6, 5, 8, 4]",12.25,,74.0,Pink to Blue,Green to Orange,,,,,531.8999999761581,,,,ua60hkvff,experiment_VB,,486057,138,blocks-exp,
170,30.0,21.0,,1.0,"[2, 1, 7, 7, 5, 8]","[8, 1, 3, 1, 4, 4]",12.25,,70.0,Pink to Blue,Green to Orange,,,,,542.4000000357628,,,,ua60hkvff,experiment_VB,,487603,139,blocks-exp,
171,25.0,30.0,,1.0,"[2, 5, 8, 3, 3, 4]","[3, 4, 8, 2, 5, 8]",12.25,,74.0,Pink to Blue,Green to Orange,,,,,428.30000001192093,,,,ua60hkvff,experiment_VB,,489040,140,blocks-exp,
172,21.0,22.0,,1.0,"[7, 1, 7, 1, 1, 4]","[7, 3, 1, 5, 1, 5]",12.25,,74.0,Pink to Blue,Green to Orange,,,,,798.1999999880791,,,,ua60hkvff,experiment_VB,,490843,141,blocks-exp,
173,28.0,37.0,,1.0,"[3, 3, 5, 6, 3, 8]","[8, 7, 2, 7, 8, 5]",12.25,,74.0,Pink to Blue,Green to Orange,,,,,455.0,,,,ua60hkvff,experiment_VB,,492311,142,blocks-exp,
174,17.0,33.0,,1.0,"[3, 2, 6, 1, 2, 3]","[7, 5, 5, 8, 4, 4]",12.25,,74.0,Pink to Blue,Green to Orange,,,,,419.5999999642372,,,,ua60hkvff,experiment_VB,,493735,143,blocks-exp,
175,21.0,24.0,,0.0,"[3, 8, 2, 2, 5, 1]","[6, 1, 4, 5, 4, 4]",12.25,,70.0,Pink to Blue,Green to Orange,,,,,1438.1000000238419,,,,ua60hkvff,experiment_VB,,496185,144,blocks-exp,
176,27.0,19.0,,1.0,"[4, 1, 6, 4, 7, 5]","[2, 4, 1, 1, 3, 8]",12.25,,70.0,Pink to Blue,Green to Orange,,,,,864.6999999880791,,,,ua60hkvff,experiment_VB,,498053,145,blocks-exp,
177,23.0,26.0,,1.0,"[1, 3, 5, 7, 6, 1]","[2, 7, 8, 2, 2, 5]",12.25,,74.0,Pink to Blue,Green to Orange,,,,,484.10000002384186,,,,ua60hkvff,experiment_VB,,499540,146,blocks-exp,
178,26.0,27.0,,0.0,"[2, 1, 2, 7, 7, 7]","[5, 2, 5, 7, 2, 6]",12.25,,70.0,Pink to Blue,Green to Orange,,,,,604.6999999880791,,,,ua60hkvff,experiment_VB,,501157,147,blocks-exp,
179,27.0,29.0,,1.0,"[2, 4, 8, 1, 7, 5]","[4, 6, 1, 5, 6, 7]",12.25,,74.0,Pink to Blue,Green to Orange,,,,,518.9000000357628,,,,ua60hkvff,experiment_VB,,502680,148,blocks-exp,
180,38.0,31.0,,1.0,"[7, 6, 8, 3, 7, 7]","[8, 5, 6, 4, 1, 7]",12.25,,70.0,Pink to Blue,Green to Orange,,,,,571.4000000357628,,,,ua60hkvff,experiment_VB,,504270,149,blocks-exp,
181,39.0,23.0,,1.0,"[8, 8, 3, 6, 6, 8]","[3, 8, 1, 2, 4, 5]",12.25,,70.0,Pink to Blue,Green to Orange,,,,,483.80000001192093,,,,ua60hkvff,experiment_VB,,505757,150,blocks-exp,
182,,,,,,,12.25,,,Pink to Blue,Green to Orange,,,19,,9294.5,,3.0,img/PB/24.jpg,ua60hkvff,,,518400,,memslider,
183,,,,,,,12.25,,,Pink to Blue,Green to Orange,,,12,,8266.600000023842,,11.0,img/PB/21.jpg,ua60hkvff,,,527169,,memslider,
184,,,,,,,12.25,,,Pink to Blue,Green to Orange,,,30,,8844.899999976158,,10.0,img/PB/29.jpg,ua60hkvff,,,536518,,memslider,
185,,,,,,,12.25,,,Pink to Blue,Green to Orange,,,36,,6421.599999964237,,8.0,img/PB/35.jpg,ua60hkvff,,,543442,,memslider,
186,,,,,,,12.25,,,Pink to Blue,Green to Orange,,,29,,6127.300000011921,,34.0,img/PB/27.jpg,ua60hkvff,,,550073,,memslider,
187,,,,,,,12.25,,,Pink to Blue,Green to Orange,,,74,,3533.600000023842,,,img/PB/21.jpg,ua60hkvff,,21.0,558220,,memchoice,
188,,,,,,,12.25,,,Pink to Blue,Green to Orange,,,74,,1746.699999988079,,,img/PB/24.jpg,ua60hkvff,,36.0,560469,,memchoice,
189,,,,,,,12.25,,,Pink to Blue,Green to Orange,,,70,,1604.300000011921,,,img/PB/27.jpg,ua60hkvff,,27.0,562576,,memchoice,
190,,,,,,,12.25,,,Pink to Blue,Green to Orange,,,70,,691.5,,,img/PB/29.jpg,ua60hkvff,,46.0,563770,,memchoice,
191,,,,,,,12.25,,,Pink to Blue,Green to Orange,,,70,,3731.5,,,img/PB/35.jpg,ua60hkvff,,47.0,568009,,memchoice,
192,24.0,31.0,,0.0,"[2, 6, 8, 3, 4, 1]","[1, 8, 3, 8, 6, 5]",12.25,,70.0,Pink to Blue,Green to Orange,,,,,1630.199999988079,,,,ua60hkvff,training_FR,,589968,1,blocks,
193,23.0,21.0,,1.0,"[6, 6, 3, 2, 1, 5]","[6, 1, 7, 1, 1, 5]",12.25,,70.0,Pink to Blue,Green to Orange,,,,,1229.1000000238419,,,,ua60hkvff,training_FR,,593202,2,blocks,
194,26.0,30.0,,1.0,"[7, 1, 3, 4, 5, 6]","[5, 4, 4, 6, 4, 7]",12.25,,74.0,Pink to Blue,Green to Orange,,,,,1573.0999999642372,,,,ua60hkvff,training_FR,,596780,3,blocks,
195,31.0,39.0,,1.0,"[7, 4, 5, 3, 7, 5]","[7, 3, 8, 6, 7, 8]",12.25,,74.0,Pink to Blue,Green to Orange,,,,,1230.199999988079,,,,ua60hkvff,training_FR,,600015,4,blocks,
196,26.0,31.0,,1.0,"[4, 1, 6, 1, 8, 6]","[3, 8, 7, 7, 2, 4]",12.25,,74.0,Pink to Blue,Green to Orange,,,,,1227.0999999642372,,,,ua60hkvff,training_FR,,603246,5,blocks,
197,28.0,24.0,,0.0,"[6, 1, 2, 4, 8, 7]","[2, 4, 3, 5, 3, 7]",12.25,,74.0,Pink to Blue,Green to Orange,,,,,867.6999999880791,,,,ua60hkvff,training_FR,,606128,6,blocks,
198,31.0,21.0,,1.0,"[5, 6, 4, 4, 5, 7]","[5, 1, 6, 5, 1, 3]",12.25,,70.0,Pink to Blue,Green to Orange,,,,,1538.1000000238419,,,,ua60hkvff,training_FR,,609679,7,blocks,
199,24.0,27.0,,1.0,"[1, 5, 8, 6, 2, 2]","[3, 2, 8, 7, 1, 6]",12.25,,74.0,Pink to Blue,Green to Orange,,,,,973.6999999880791,,,,ua60hkvff,training_FR,,612657,8,blocks,
200,28.0,19.0,,1.0,"[7, 5, 7, 4, 4, 1]","[2, 5, 2, 3, 1, 6]",12.25,,70.0,Pink to Blue,Green to Orange,,,,,760.9000000357628,,,,ua60hkvff,training_FR,,615423,9,blocks,
201,28.0,27.0,,1.0,"[6, 1, 6, 2, 7, 6]","[3, 8, 4, 5, 6, 1]",12.25,,70.0,Pink to Blue,Green to Orange,,,,,707.8999999761581,,,,ua60hkvff,training_FR,,618150,10,blocks,
202,21.0,24.0,,1.0,"[6, 1, 5, 4, 1, 4]","[8, 1, 5, 7, 2, 1]",12.25,,74.0,Pink to Blue,Green to Orange,,,,,1459.1000000238419,,,,ua60hkvff,training_FR,,621614,11,blocks,
203,39.0,20.0,,1.0,"[8, 6, 6, 6, 6, 7]","[2, 1, 1, 4, 8, 4]",12.25,,70.0,Pink to Blue,Green to Orange,,,,,630.3000000119209,,,,ua60hkvff,training_FR,,624251,12,blocks,
204,30.0,25.0,,0.0,"[7, 2, 6, 3, 5, 7]","[5, 1, 7, 7, 4, 1]",12.25,,74.0,Pink to Blue,Green to Orange,,,,,2432.0,,,,ua60hkvff,training_FR,,628688,13,blocks,
205,31.0,29.0,,1.0,"[4, 5, 6, 8, 5, 3]","[5, 3, 3, 6, 6, 6]",12.25,,70.0,Pink to Blue,Green to Orange,,,,,596.5,,,,ua60hkvff,training_FR,,631304,14,blocks,
206,23.0,26.0,,1.0,"[4, 4, 6, 1, 2, 6]","[7, 6, 3, 2, 2, 6]",12.25,,74.0,Pink to Blue,Green to Orange,,,,,680.8000000119209,,,,ua60hkvff,training_FR,,633990,15,blocks,
207,38.0,19.0,,1.0,"[8, 5, 5, 4, 8, 8]","[1, 2, 1, 3, 4, 8]",12.25,,70.0,Pink to Blue,Green to Orange,,,,,538.6000000238419,,,,ua60hkvff,training_FR,,636543,16,blocks,
208,25.0,31.0,,1.0,"[2, 8, 4, 7, 2, 2]","[3, 6, 4, 7, 3, 8]",12.25,,74.0,Pink to Blue,Green to Orange,,,,,1169.699999988079,,,,ua60hkvff,training_FR,,639718,17,blocks,
209,25.0,30.0,,1.0,"[7, 6, 4, 3, 1, 4]","[4, 5, 7, 5, 6, 3]",12.25,,74.0,Pink to Blue,Green to Orange,,,,,759.6999999880791,,,,ua60hkvff,training_FR,,642483,18,blocks,
210,26.0,20.0,,1.0,"[2, 7, 1, 4, 4, 8]","[2, 3, 3, 8, 1, 3]",12.25,,70.0,Pink to Blue,Green to Orange,,,,,1066.5999999642372,,,,ua60hkvff,training_FR,,645552,19,blocks,
211,22.0,30.0,,1.0,"[1, 5, 6, 2, 5, 3]","[8, 4, 5, 3, 2, 8]",12.25,,74.0,Pink to Blue,Green to Orange,,,,,1048.300000011921,,,,ua60hkvff,training_FR,,648606,20,blocks,
