,subject,Trial,key_press,accuracy,rt,trial_type,arrL,arrR,ValL,ValR,Age,Gender,FullColorVision,compensation,rainbow,nValL,nValR,skew
0,0mkkxzz3w,1,70,1,4406.89999997616,Training,9 11 7 12 10 6,5 6 10 6 7 8,55,42,35,Male,Yes,11.07,Pink to Blue,6,5,0.11150198809860125
1,0mkkxzz3w,2,70,1,1422.0,Training,11 11 10 2 6 8,3 10 4 6 3 5,48,31,35,Male,Yes,11.07,Pink to Blue,5,5,0.11150198809860125
2,0mkkxzz3w,3,70,1,1891.89999997616,Training,11 9 6 11 6 5,8 6 8 2 11 7,48,42,35,Male,Yes,11.07,Pink to Blue,4,5,0.11150198809860125
3,0mkkxzz3w,4,74,1,1956.69999992847,Training,3 1 3 11 5 1,5 8 6 3 12 5,24,39,35,Male,Yes,11.07,Pink to Blue,4,5,0.11150198809860125
4,0mkkxzz3w,5,70,1,1148.90000009537,Training,12 11 6 6 2 6,6 4 10 5 7 4,43,36,35,Male,Yes,11.07,Pink to Blue,4,5,0.11150198809860125
5,0mkkxzz3w,6,70,1,1050.0,Training,9 12 6 3 6 8,7 6 4 4 9 7,44,37,35,Male,Yes,11.07,Pink to Blue,5,4,0.11150198809860125
6,0mkkxzz3w,7,74,1,946.5,Training,3 3 2 12 5 3,6 7 8 11 8 2,28,42,35,Male,Yes,11.07,Pink to Blue,4,5,0.11150198809860125
7,0mkkxzz3w,8,70,1,4070.09999990463,Training,3 4 1 9 11 5,8 10 2 6 2 1,33,29,35,Male,Yes,11.07,Pink to Blue,6,5,0.11150198809860125
8,0mkkxzz3w,9,70,1,805.199999928474,Training,12 7 2 10 7 11,9 9 2 1 4 4,49,29,35,Male,Yes,11.07,Pink to Blue,5,4,0.11150198809860125
9,0mkkxzz3w,10,70,1,780.300000071526,Training,3 12 2 10 10 9,4 1 8 7 1 5,46,26,35,Male,Yes,11.07,Pink to Blue,5,5,0.11150198809860125
10,0mkkxzz3w,11,74,1,836.699999928474,Training,1 11 8 3 4 12,11 11 1 1 10 10,39,44,35,Male,Yes,11.07,Pink to Blue,6,3,0.11150198809860125
11,0mkkxzz3w,12,70,1,1445.0,Training,8 11 5 8 4 4,7 3 6 4 8 6,40,34,35,Male,Yes,11.07,Pink to Blue,4,5,0.11150198809860125
12,0mkkxzz3w,13,70,1,1614.10000002384,Training,6 11 4 12 4 2,5 10 4 3 7 5,39,34,35,Male,Yes,11.07,Pink to Blue,5,5,0.11150198809860125
13,0mkkxzz3w,14,70,1,1100.39999997616,Training,7 11 2 12 5 11,4 8 3 8 8 9,48,40,35,Male,Yes,11.07,Pink to Blue,5,4,0.11150198809860125
14,0mkkxzz3w,15,70,0,5981.89999997616,Training,12 5 3 12 4 1,7 4 12 2 5 10,37,40,35,Male,Yes,11.07,Pink to Blue,5,6,0.11150198809860125
15,0mkkxzz3w,16,70,0,1404.10000002384,Training,1 2 1 2 10 2,5 3 6 3 4 4,18,25,35,Male,Yes,11.07,Pink to Blue,3,4,0.11150198809860125
16,0mkkxzz3w,17,70,1,4077.19999992847,Training,11 5 7 10 8 8,8 11 2 12 2 9,49,44,35,Male,Yes,11.07,Pink to Blue,5,5,0.11150198809860125
17,0mkkxzz3w,18,74,1,1221.40000009537,Training,1 6 1 4 12 4,2 4 2 11 10 12,28,41,35,Male,Yes,11.07,Pink to Blue,4,5,0.11150198809860125
18,0mkkxzz3w,19,74,1,956.800000071526,Training,2 2 7 1 8 10,6 2 11 10 10 11,30,50,35,Male,Yes,11.07,Pink to Blue,5,4,0.11150198809860125
19,0mkkxzz3w,20,74,1,2915.39999997616,Training,2 1 5 7 10 6,5 4 1 3 12 10,31,35,35,Male,Yes,11.07,Pink to Blue,6,6,0.11150198809860125
20,0mkkxzz3w,21,74,1,1165.30000007153,Training,8 1 12 11 3 1,9 12 3 9 3 10,36,46,35,Male,Yes,11.07,Pink to Blue,5,4,0.11150198809860125
21,0mkkxzz3w,22,74,1,964.5,Training,3 1 5 8 3 2,11 3 1 6 6 9,22,36,35,Male,Yes,11.07,Pink to Blue,5,5,0.11150198809860125
22,0mkkxzz3w,23,74,1,924.399999976158,Training,10 4 4 1 12 4,11 10 7 5 12 4,35,49,35,Male,Yes,11.07,Pink to Blue,4,6,0.11150198809860125
23,0mkkxzz3w,24,70,0,2483.70000004768,Training,7 7 1 4 4 9,6 1 3 11 7 5,32,33,35,Male,Yes,11.07,Pink to Blue,4,6,0.11150198809860125
24,0mkkxzz3w,25,70,1,683.700000047684,Training,11 10 10 7 10 10,8 8 2 6 2 8,58,34,35,Male,Yes,11.07,Pink to Blue,3,3,0.11150198809860125
25,0mkkxzz3w,26,74,1,3387.5,Training,2 9 2 11 2 3,1 7 11 3 8 3,29,33,35,Male,Yes,11.07,Pink to Blue,4,5,0.11150198809860125
26,0mkkxzz3w,27,70,1,2140.60000002384,Training,8 6 6 4 5 8,2 3 10 7 4 4,37,30,35,Male,Yes,11.07,Pink to Blue,4,5,0.11150198809860125
27,0mkkxzz3w,28,74,0,2011.10000002384,Training,9 2 9 6 5 2,1 4 11 8 3 3,33,30,35,Male,Yes,11.07,Pink to Blue,4,5,0.11150198809860125
28,0mkkxzz3w,29,74,1,1532.70000004768,Training,8 1 3 9 4 12,7 12 2 7 8 11,37,47,35,Male,Yes,11.07,Pink to Blue,6,5,0.11150198809860125
29,0mkkxzz3w,30,70,1,1340.89999997616,Training,6 6 8 10 12 4,5 7 5 10 3 9,46,39,35,Male,Yes,11.07,Pink to Blue,5,5,0.11150198809860125
30,0mkkxzz3w,1,74,0,2170.0,Experiment,12 7 9 7 8 6,5 9 6 12 8 8,49,48,35,Male,Yes,11.07,Pink to Blue,5,5,0.11150198809860125
31,0mkkxzz3w,2,70,1,2921.10000002384,Experiment,1 7 7 5 4 4,3 4 4 4 8 2,28,25,35,Male,Yes,11.07,Pink to Blue,4,4,0.11150198809860125
32,0mkkxzz3w,3,74,1,1306.29999995232,Experiment,12 6 5 12 8 5,12 7 10 6 12 7,48,54,35,Male,Yes,11.07,Pink to Blue,4,4,0.11150198809860125
33,0mkkxzz3w,4,74,1,1851.5,Experiment,5 8 6 9 9 11,9 11 6 6 12 8,48,52,35,Male,Yes,11.07,Pink to Blue,5,5,0.11150198809860125
34,0mkkxzz3w,5,74,1,2380.29999995232,Experiment,10 5 11 5 9 11,11 6 11 7 9 11,51,55,35,Male,Yes,11.07,Pink to Blue,4,4,0.11150198809860125
35,0mkkxzz3w,6,74,0,2573.19999992847,Experiment,5 6 4 5 1 8,3 8 2 1 4 8,29,26,35,Male,Yes,11.07,Pink to Blue,5,5,0.11150198809860125
36,0mkkxzz3w,7,70,0,1876.70000004768,Experiment,6 5 11 10 7 9,9 5 6 7 12 11,48,50,35,Male,Yes,11.07,Pink to Blue,6,6,0.11150198809860125
37,0mkkxzz3w,8,74,1,1998.39999997616,Experiment,4 4 3 10 9 7,5 6 9 7 5 10,37,42,35,Male,Yes,11.07,Pink to Blue,5,5,0.11150198809860125
38,0mkkxzz3w,9,70,1,2061.29999995232,Experiment,10 11 9 12 7 10,8 11 10 11 5 12,59,57,35,Male,Yes,11.07,Pink to Blue,5,5,0.11150198809860125
39,0mkkxzz3w,10,70,1,2908.0,Experiment,11 11 8 9 8 5,9 6 5 9 9 11,52,49,35,Male,Yes,11.07,Pink to Blue,4,4,0.11150198809860125
40,0mkkxzz3w,11,74,1,2765.39999997616,Experiment,3 9 4 7 7 7,3 7 9 6 6 9,37,40,35,Male,Yes,11.07,Pink to Blue,4,4,0.11150198809860125
41,0mkkxzz3w,12,70,1,2212.29999995232,Experiment,12 9 9 8 5 10,7 8 5 12 12 6,53,50,35,Male,Yes,11.07,Pink to Blue,5,5,0.11150198809860125
42,0mkkxzz3w,13,74,1,4005.10000002384,Experiment,8 6 3 10 9 9,8 8 10 9 5 7,45,47,35,Male,Yes,11.07,Pink to Blue,5,5,0.11150198809860125
43,0mkkxzz3w,14,74,1,5052.89999997616,Experiment,8 4 7 2 7 1,7 1 8 7 6 4,29,33,35,Male,Yes,11.07,Pink to Blue,5,5,0.11150198809860125
44,0mkkxzz3w,15,74,1,2644.80000007153,Experiment,6 5 4 3 5 1,7 6 2 3 4 7,24,29,35,Male,Yes,11.07,Pink to Blue,5,5,0.11150198809860125
45,0mkkxzz3w,16,74,1,3998.30000007153,Experiment,4 6 6 3 10 7,10 4 5 7 6 5,36,37,35,Male,Yes,11.07,Pink to Blue,5,5,0.11150198809860125
46,0mkkxzz3w,17,74,1,2654.20000004768,Experiment,7 10 3 3 8 6,7 9 8 5 7 3,37,39,35,Male,Yes,11.07,Pink to Blue,5,5,0.11150198809860125
47,0mkkxzz3w,18,70,1,3933.5,Experiment,1 4 8 7 2 7,1 7 5 4 2 5,29,24,35,Male,Yes,11.07,Pink to Blue,5,5,0.11150198809860125
48,0mkkxzz3w,19,70,1,1996.40000009537,Experiment,9 3 4 10 7 5,3 5 7 4 8 9,38,36,35,Male,Yes,11.07,Pink to Blue,6,6,0.11150198809860125
49,0mkkxzz3w,20,74,0,3175.60000002384,Experiment,5 6 12 11 9 12,10 8 6 12 7 6,55,49,35,Male,Yes,11.07,Pink to Blue,5,5,0.11150198809860125
50,0mkkxzz3w,21,74,1,2579.79999995232,Experiment,7 3 6 8 3 10,7 8 9 3 5 9,37,41,35,Male,Yes,11.07,Pink to Blue,5,5,0.11150198809860125
51,0mkkxzz3w,22,70,0,3197.70000004768,Experiment,9 10 7 6 8 8,6 11 11 10 5 7,48,50,35,Male,Yes,11.07,Pink to Blue,5,5,0.11150198809860125
52,0mkkxzz3w,23,70,1,2803.80000007153,Experiment,5 4 8 5 8 9,6 10 3 4 4 10,39,37,35,Male,Yes,11.07,Pink to Blue,4,4,0.11150198809860125
53,0mkkxzz3w,24,74,1,3124.89999997616,Experiment,8 1 1 4 5 6,6 5 3 5 1 7,25,27,35,Male,Yes,11.07,Pink to Blue,5,5,0.11150198809860125
54,0mkkxzz3w,25,70,1,6256.09999990463,Experiment,11 6 9 8 6 12,9 5 11 5 8 10,52,48,35,Male,Yes,11.07,Pink to Blue,5,5,0.11150198809860125
55,0mkkxzz3w,26,70,1,4445.60000002384,Experiment,3 1 7 5 6 6,2 5 6 3 8 3,28,27,35,Male,Yes,11.07,Pink to Blue,5,5,0.11150198809860125
56,0mkkxzz3w,27,70,0,13189.1000000238,Experiment,6 5 9 3 4 9,3 9 8 4 10 3,36,37,35,Male,Yes,11.07,Pink to Blue,5,5,0.11150198809860125
57,0mkkxzz3w,28,74,1,1196.5,Experiment,3 10 6 3 10 4,5 10 10 8 5 4,36,42,35,Male,Yes,11.07,Pink to Blue,4,4,0.11150198809860125
58,0mkkxzz3w,29,74,0,1829.19999992847,Experiment,10 10 8 4 6 10,6 7 10 4 6 10,48,43,35,Male,Yes,11.07,Pink to Blue,4,4,0.11150198809860125
59,0mkkxzz3w,30,70,1,5509.20000004768,Experiment,4 7 6 1 8 5,7 4 2 5 1 6,31,25,35,Male,Yes,11.07,Pink to Blue,6,6,0.11150198809860125
60,0mkkxzz3w,31,74,1,5225.5,Experiment,1 8 4 2 2 8,6 2 3 6 3 7,25,27,35,Male,Yes,11.07,Pink to Blue,4,4,0.11150198809860125
61,0mkkxzz3w,32,74,1,5788.39999997616,Experiment,5 7 3 6 2 1,3 7 8 2 1 5,24,26,35,Male,Yes,11.07,Pink to Blue,6,6,0.11150198809860125
62,0mkkxzz3w,33,70,1,3141.29999995232,Experiment,7 11 10 11 11 7,9 11 7 7 7 11,57,52,35,Male,Yes,11.07,Pink to Blue,3,3,0.11150198809860125
63,0mkkxzz3w,34,74,1,3500.39999997616,Experiment,5 7 5 9 8 7,7 8 8 4 7 9,41,43,35,Male,Yes,11.07,Pink to Blue,4,4,0.11150198809860125
64,0mkkxzz3w,35,70,0,4988.0,Experiment,4 6 5 5 6 1,1 3 8 8 5 5,27,30,35,Male,Yes,11.07,Pink to Blue,4,4,0.11150198809860125
65,0mkkxzz3w,36,74,0,3645.19999992847,Experiment,6 3 8 6 5 7,7 7 6 8 4 1,35,33,35,Male,Yes,11.07,Pink to Blue,5,5,0.11150198809860125
66,0mkkxzz3w,37,74,0,1525.5,Experiment,10 8 6 10 7 8,3 9 10 9 9 8,49,48,35,Male,Yes,11.07,Pink to Blue,4,4,0.11150198809860125
67,0mkkxzz3w,38,74,1,3052.5,Experiment,5 12 5 9 9 11,12 8 10 7 10 7,51,54,35,Male,Yes,11.07,Pink to Blue,4,4,0.11150198809860125
68,0mkkxzz3w,39,74,1,4109.80000007153,Experiment,12 6 7 10 9 7,7 10 11 9 10 5,51,52,35,Male,Yes,11.07,Pink to Blue,5,5,0.11150198809860125
69,0mkkxzz3w,40,70,1,4707.0,Experiment,9 3 8 5 8 7,10 7 8 4 5 5,40,39,35,Male,Yes,11.07,Pink to Blue,5,5,0.11150198809860125
70,0mkkxzz3w,41,70,1,2189.10000002384,Experiment,9 12 8 6 12 8,7 10 11 7 6 10,55,51,35,Male,Yes,11.07,Pink to Blue,4,4,0.11150198809860125
71,0mkkxzz3w,42,74,0,7493.60000002384,Experiment,4 7 4 6 3 5,3 7 4 5 7 2,29,28,35,Male,Yes,11.07,Pink to Blue,5,5,0.11150198809860125
72,0mkkxzz3w,43,74,0,4563.60000002384,Experiment,5 7 7 2 7 3,1 6 1 5 7 7,31,27,35,Male,Yes,11.07,Pink to Blue,4,4,0.11150198809860125
73,0mkkxzz3w,44,70,1,3692.10000002384,Experiment,8 3 6 7 7 10,6 10 3 5 4 10,41,38,35,Male,Yes,11.07,Pink to Blue,5,5,0.11150198809860125
74,0mkkxzz3w,45,74,1,2309.0,Experiment,4 1 8 3 3 5,2 8 3 6 6 1,24,26,35,Male,Yes,11.07,Pink to Blue,5,5,0.11150198809860125
75,0mkkxzz3w,46,74,0,7333.5,Experiment,12 11 5 8 10 9,9 5 6 10 8 11,55,49,35,Male,Yes,11.07,Pink to Blue,6,6,0.11150198809860125
76,0mkkxzz3w,47,70,1,2716.5,Experiment,8 9 3 10 9 6,4 10 9 3 9 6,45,41,35,Male,Yes,11.07,Pink to Blue,5,5,0.11150198809860125
77,0mkkxzz3w,48,70,1,1765.5,Experiment,8 8 7 10 8 3,6 7 10 4 7 7,44,41,35,Male,Yes,11.07,Pink to Blue,4,4,0.11150198809860125
78,0mkkxzz3w,49,74,1,6612.80000007153,Experiment,5 8 9 4 8 5,10 6 4 10 6 7,39,43,35,Male,Yes,11.07,Pink to Blue,4,4,0.11150198809860125
79,0mkkxzz3w,50,70,1,1860.60000002384,Experiment,4 7 4 7 6 4,2 2 3 3 8 8,32,26,35,Male,Yes,11.07,Pink to Blue,3,3,0.11150198809860125
80,0mkkxzz3w,51,70,1,5532.80000007153,Experiment,8 5 9 4 9 6,8 7 3 7 5 6,41,36,35,Male,Yes,11.07,Pink to Blue,5,5,0.11150198809860125
81,0mkkxzz3w,52,74,1,2422.39999997616,Experiment,5 6 6 12 11 9,8 12 7 9 7 11,49,54,35,Male,Yes,11.07,Pink to Blue,5,5,0.11150198809860125
82,0mkkxzz3w,53,74,0,4188.5,Experiment,6 10 8 6 8 10,9 9 9 4 9 6,48,46,35,Male,Yes,11.07,Pink to Blue,3,3,0.11150198809860125
83,0mkkxzz3w,54,74,1,1175.20000004768,Experiment,7 2 5 7 5 3,8 8 2 5 8 4,29,35,35,Male,Yes,11.07,Pink to Blue,4,4,0.11150198809860125
84,0mkkxzz3w,55,70,1,4317.0,Experiment,10 11 11 7 6 8,9 5 8 7 10 9,53,48,35,Male,Yes,11.07,Pink to Blue,5,5,0.11150198809860125
85,0mkkxzz3w,56,70,1,3597.0,Experiment,4 10 10 8 6 8,7 10 7 8 3 10,46,45,35,Male,Yes,11.07,Pink to Blue,4,4,0.11150198809860125
86,0mkkxzz3w,57,70,1,6205.29999995232,Experiment,12 10 6 6 8 12,7 11 6 6 9 9,54,48,35,Male,Yes,11.07,Pink to Blue,4,4,0.11150198809860125
87,0mkkxzz3w,58,70,1,3189.39999997616,Experiment,7 6 5 2 5 6,6 5 7 5 3 3,31,29,35,Male,Yes,11.07,Pink to Blue,4,4,0.11150198809860125
88,0mkkxzz3w,59,70,1,2101.0,Experiment,11 7 10 8 7 11,5 7 8 5 12 12,54,49,35,Male,Yes,11.07,Pink to Blue,4,4,0.11150198809860125
89,0mkkxzz3w,60,74,1,4476.70000004768,Experiment,9 8 5 6 4 4,7 6 4 10 8 7,36,42,35,Male,Yes,11.07,Pink to Blue,5,5,0.11150198809860125
90,0mkkxzz3w,61,74,1,2698.19999992847,Experiment,7 6 9 4 3 8,7 10 8 6 3 9,37,43,35,Male,Yes,11.07,Pink to Blue,6,6,0.11150198809860125
91,0mkkxzz3w,62,74,0,7773.5,Experiment,9 12 11 11 8 10,9 12 7 11 10 11,61,60,35,Male,Yes,11.07,Pink to Blue,5,5,0.11150198809860125
92,0mkkxzz3w,63,70,0,3795.60000002384,Experiment,1 5 4 2 5 7,7 2 2 8 4 5,24,28,35,Male,Yes,11.07,Pink to Blue,5,5,0.11150198809860125
93,0mkkxzz3w,64,74,0,2749.89999997616,Experiment,8 10 9 12 10 12,11 11 5 10 12 11,61,60,35,Male,Yes,11.07,Pink to Blue,4,4,0.11150198809860125
94,0mkkxzz3w,65,74,0,4580.69999992847,Experiment,3 10 10 5 7 7,3 8 8 7 7 6,42,39,35,Male,Yes,11.07,Pink to Blue,4,4,0.11150198809860125
95,0mkkxzz3w,66,70,1,2365.70000004768,Experiment,5 8 4 8 3 10,5 3 5 7 6 10,38,36,35,Male,Yes,11.07,Pink to Blue,5,5,0.11150198809860125
96,0mkkxzz3w,67,70,1,2149.19999992847,Experiment,10 4 10 6 8 4,5 4 9 7 7 4,42,36,35,Male,Yes,11.07,Pink to Blue,4,4,0.11150198809860125
97,0mkkxzz3w,68,70,1,5045.60000002384,Experiment,7 7 10 7 10 3,6 8 8 6 7 7,44,42,35,Male,Yes,11.07,Pink to Blue,3,3,0.11150198809860125
98,0mkkxzz3w,69,74,1,1291.10000002384,Experiment,12 7 5 11 8 12,12 11 9 10 9 7,55,58,35,Male,Yes,11.07,Pink to Blue,5,5,0.11150198809860125
99,0mkkxzz3w,70,70,1,3380.39999997616,Experiment,5 9 4 7 9 9,3 3 8 7 9 9,43,39,35,Male,Yes,11.07,Pink to Blue,4,4,0.11150198809860125
100,0mkkxzz3w,71,70,1,5748.60000002384,Experiment,2 7 8 1 1 6,7 3 1 2 7 4,25,24,35,Male,Yes,11.07,Pink to Blue,5,5,0.11150198809860125
101,0mkkxzz3w,72,70,1,2564.89999997616,Experiment,8 9 5 9 9 5,5 5 9 9 5 7,45,40,35,Male,Yes,11.07,Pink to Blue,3,3,0.11150198809860125
102,0mkkxzz3w,73,70,0,2110.0,Experiment,10 8 9 10 9 8,9 12 5 12 9 9,54,56,35,Male,Yes,11.07,Pink to Blue,3,3,0.11150198809860125
103,0mkkxzz3w,74,74,1,4549.70000004768,Experiment,8 2 7 1 4 4,6 3 4 6 7 2,26,28,35,Male,Yes,11.07,Pink to Blue,5,5,0.11150198809860125
104,0mkkxzz3w,75,70,1,2230.89999997616,Experiment,8 6 4 6 8 4,7 2 7 7 4 7,36,34,35,Male,Yes,11.07,Pink to Blue,3,3,0.11150198809860125
105,0mkkxzz3w,76,70,1,6885.79999995232,Experiment,9 7 5 6 6 8,5 9 7 6 9 4,41,40,35,Male,Yes,11.07,Pink to Blue,5,5,0.11150198809860125
106,0mkkxzz3w,77,70,1,8483.60000002384,Experiment,7 5 7 6 8 4,5 3 8 7 6 7,37,36,35,Male,Yes,11.07,Pink to Blue,5,5,0.11150198809860125
107,0mkkxzz3w,78,70,1,3085.5,Experiment,8 4 9 6 8 5,10 6 9 3 6 4,40,38,35,Male,Yes,11.07,Pink to Blue,5,5,0.11150198809860125
108,0mkkxzz3w,79,74,1,1748.69999992847,Experiment,8 8 4 7 3 1,7 6 5 3 8 5,31,34,35,Male,Yes,11.07,Pink to Blue,5,5,0.11150198809860125
109,0mkkxzz3w,80,74,1,1125.79999995232,Experiment,6 10 6 11 7 8,8 9 10 6 12 9,48,54,35,Male,Yes,11.07,Pink to Blue,5,5,0.11150198809860125
110,0mkkxzz3w,81,74,1,4380.79999995232,Experiment,8 2 1 4 4 5,4 2 3 5 8 3,24,25,35,Male,Yes,11.07,Pink to Blue,5,5,0.11150198809860125
111,0mkkxzz3w,82,70,1,4228.79999995232,Experiment,2 7 2 8 5 6,4 5 2 8 6 4,30,29,35,Male,Yes,11.07,Pink to Blue,5,5,0.11150198809860125
112,0mkkxzz3w,83,70,1,2333.79999995232,Experiment,5 4 10 9 8 9,6 4 8 9 6 7,45,40,35,Male,Yes,11.07,Pink to Blue,5,5,0.11150198809860125
113,0mkkxzz3w,84,70,1,6124.30000007153,Experiment,4 6 6 8 3 6,8 8 2 7 1 1,33,27,35,Male,Yes,11.07,Pink to Blue,4,4,0.11150198809860125
114,0mkkxzz3w,85,70,1,1725.10000002384,Experiment,6 8 8 4 2 8,8 8 4 2 4 5,36,31,35,Male,Yes,11.07,Pink to Blue,4,4,0.11150198809860125
115,0mkkxzz3w,86,70,1,2053.40000009537,Experiment,5 10 12 9 10 10,6 9 9 8 12 9,56,53,35,Male,Yes,11.07,Pink to Blue,4,4,0.11150198809860125
116,0mkkxzz3w,87,74,1,3310.0,Experiment,12 5 8 6 6 12,7 7 10 11 6 10,49,51,35,Male,Yes,11.07,Pink to Blue,4,4,0.11150198809860125
117,0mkkxzz3w,88,74,1,2242.89999997616,Experiment,8 6 9 12 8 12,8 6 12 12 10 12,55,60,35,Male,Yes,11.07,Pink to Blue,4,4,0.11150198809860125
118,0mkkxzz3w,89,74,1,1789.69999992847,Experiment,12 5 6 11 8 11,12 10 11 5 8 11,53,57,35,Male,Yes,11.07,Pink to Blue,5,5,0.11150198809860125
119,0mkkxzz3w,90,70,1,3357.0,Experiment,5 8 2 1 7 8,4 6 2 8 2 3,31,25,35,Male,Yes,11.07,Pink to Blue,5,5,0.11150198809860125
120,0mkkxzz3w,91,70,1,3834.59999990463,Experiment,3 7 7 7 6 3,7 3 3 5 7 3,33,28,35,Male,Yes,11.07,Pink to Blue,3,3,0.11150198809860125
121,0mkkxzz3w,92,70,1,6220.79999995232,Experiment,10 5 9 7 7 8,3 9 5 6 10 10,46,43,35,Male,Yes,11.07,Pink to Blue,5,5,0.11150198809860125
122,0mkkxzz3w,93,74,1,1060.89999997616,Experiment,9 12 10 8 5 5,5 10 9 7 11 9,49,51,35,Male,Yes,11.07,Pink to Blue,5,5,0.11150198809860125
123,0mkkxzz3w,94,70,1,2157.0,Experiment,1 6 8 6 6 5,5 4 2 8 5 5,32,29,35,Male,Yes,11.07,Pink to Blue,4,4,0.11150198809860125
124,0mkkxzz3w,95,70,1,4598.29999995232,Experiment,8 10 12 6 10 12,10 9 12 9 12 5,58,57,35,Male,Yes,11.07,Pink to Blue,4,4,0.11150198809860125
125,0mkkxzz3w,96,74,1,2661.29999995232,Experiment,6 10 3 3 5 10,5 5 9 8 9 6,37,42,35,Male,Yes,11.07,Pink to Blue,4,4,0.11150198809860125
126,0mkkxzz3w,97,74,1,2588.90000009537,Experiment,7 3 8 3 9 6,7 9 4 6 10 4,36,40,35,Male,Yes,11.07,Pink to Blue,5,5,0.11150198809860125
127,0mkkxzz3w,98,70,1,1843.39999997616,Experiment,8 2 5 4 8 4,6 6 3 3 2 7,31,27,35,Male,Yes,11.07,Pink to Blue,4,4,0.11150198809860125
128,0mkkxzz3w,99,70,1,3172.40000009537,Experiment,4 8 5 5 2 6,2 6 4 3 2 7,30,24,35,Male,Yes,11.07,Pink to Blue,5,5,0.11150198809860125
129,0mkkxzz3w,100,74,1,1341.89999997616,Experiment,9 6 5 9 4 6,3 8 3 10 10 9,39,43,35,Male,Yes,11.07,Pink to Blue,4,4,0.11150198809860125
130,0mkkxzz3w,101,70,1,2941.29999995232,Experiment,7 4 3 8 5 3,8 1 5 7 2 2,30,25,35,Male,Yes,11.07,Pink to Blue,5,5,0.11150198809860125
131,0mkkxzz3w,102,70,0,1629.09999990463,Experiment,6 10 4 7 8 6,4 8 4 10 7 9,41,42,35,Male,Yes,11.07,Pink to Blue,5,5,0.11150198809860125
132,0mkkxzz3w,103,74,1,5709.10000002384,Experiment,1 6 2 8 8 6,8 1 7 4 8 4,31,32,35,Male,Yes,11.07,Pink to Blue,4,4,0.11150198809860125
133,0mkkxzz3w,104,70,1,1994.5,Experiment,8 8 10 9 7 11,11 6 9 7 11 8,53,52,35,Male,Yes,11.07,Pink to Blue,5,5,0.11150198809860125
134,0mkkxzz3w,105,74,0,1275.60000002384,Experiment,12 10 12 5 5 11,8 7 11 11 8 6,55,51,35,Male,Yes,11.07,Pink to Blue,4,4,0.11150198809860125
135,0mkkxzz3w,106,70,1,2052.0,Experiment,6 12 9 12 12 8,9 11 11 9 6 7,59,53,35,Male,Yes,11.07,Pink to Blue,4,4,0.11150198809860125
136,0mkkxzz3w,107,70,1,5351.20000004768,Experiment,6 6 10 3 9 10,10 10 8 8 3 4,44,43,35,Male,Yes,11.07,Pink to Blue,4,4,0.11150198809860125
137,0mkkxzz3w,108,74,1,4402.89999997616,Experiment,6 6 4 9 7 5,4 5 5 9 10 6,37,39,35,Male,Yes,11.07,Pink to Blue,5,5,0.11150198809860125
138,0mkkxzz3w,109,70,1,1781.89999997616,Experiment,5 8 11 12 12 8,10 6 10 12 12 5,56,55,35,Male,Yes,11.07,Pink to Blue,4,4,0.11150198809860125
139,0mkkxzz3w,110,70,1,3756.89999997616,Experiment,6 2 3 8 8 3,2 8 8 4 1 1,30,24,35,Male,Yes,11.07,Pink to Blue,4,4,0.11150198809860125
140,0mkkxzz3w,111,70,0,2428.79999995232,Experiment,10 8 8 11 6 9,11 6 11 7 10 12,52,57,35,Male,Yes,11.07,Pink to Blue,5,5,0.11150198809860125
141,0mkkxzz3w,112,74,1,2348.29999995232,Experiment,8 6 6 3 3 2,7 6 3 3 6 8,28,33,35,Male,Yes,11.07,Pink to Blue,4,4,0.11150198809860125
142,0mkkxzz3w,113,70,1,2708.39999997616,Experiment,3 7 6 7 3 4,8 1 8 4 1 3,30,25,35,Male,Yes,11.07,Pink to Blue,4,4,0.11150198809860125
143,0mkkxzz3w,114,74,1,1292.89999997616,Experiment,3 6 4 2 5 4,7 2 7 6 1 3,24,26,35,Male,Yes,11.07,Pink to Blue,5,5,0.11150198809860125
144,0mkkxzz3w,115,74,0,1125.39999997616,Experiment,5 10 12 11 6 5,6 8 11 5 7 11,49,48,35,Male,Yes,11.07,Pink to Blue,5,5,0.11150198809860125
145,0mkkxzz3w,116,70,1,2082.09999990463,Experiment,7 3 4 3 2 8,2 7 3 5 4 4,27,25,35,Male,Yes,11.07,Pink to Blue,5,5,0.11150198809860125
146,0mkkxzz3w,117,70,0,1806.10000002384,Experiment,9 7 11 10 9 7,6 11 9 10 9 10,53,55,35,Male,Yes,11.07,Pink to Blue,4,4,0.11150198809860125
147,0mkkxzz3w,118,74,0,3077.39999997616,Experiment,6 12 6 11 9 10,8 9 8 6 10 12,54,53,35,Male,Yes,11.07,Pink to Blue,5,5,0.11150198809860125
148,0mkkxzz3w,119,74,1,4133.60000002384,Experiment,7 6 4 7 3 9,6 10 4 9 9 3,36,41,35,Male,Yes,11.07,Pink to Blue,5,5,0.11150198809860125
149,0mkkxzz3w,120,74,1,11596.3999999762,Experiment,4 3 7 4 7 2,8 1 8 7 1 6,27,31,35,Male,Yes,11.07,Pink to Blue,4,4,0.11150198809860125
150,0mkkxzz3w,121,74,1,1128.60000002384,Experiment,10 3 9 3 7 7,5 10 5 6 8 8,39,42,35,Male,Yes,11.07,Pink to Blue,4,4,0.11150198809860125
151,0mkkxzz3w,122,74,1,1429.60000002384,Experiment,5 1 8 5 8 6,8 6 4 2 6 8,33,34,35,Male,Yes,11.07,Pink to Blue,4,4,0.11150198809860125
152,0mkkxzz3w,123,74,1,844.5,Experiment,3 10 9 10 3 4,6 8 10 5 8 8,39,45,35,Male,Yes,11.07,Pink to Blue,4,4,0.11150198809860125
153,0mkkxzz3w,124,70,1,1437.5,Experiment,10 8 7 6 11 10,6 12 8 5 8 11,52,50,35,Male,Yes,11.07,Pink to Blue,5,5,0.11150198809860125
154,0mkkxzz3w,125,74,1,2189.60000002384,Experiment,9 10 5 8 9 7,10 9 9 6 7 8,48,49,35,Male,Yes,11.07,Pink to Blue,5,5,0.11150198809860125
155,0mkkxzz3w,126,70,0,2820.79999995232,Experiment,8 7 6 12 8 8,9 5 8 8 11 11,49,52,35,Male,Yes,11.07,Pink to Blue,4,4,0.11150198809860125
156,0mkkxzz3w,127,70,1,1860.79999995232,Experiment,4 2 8 2 8 6,2 7 5 5 3 2,30,24,35,Male,Yes,11.07,Pink to Blue,4,4,0.11150198809860125
157,0mkkxzz3w,128,74,1,7379.29999995232,Experiment,7 6 9 8 11 8,7 7 12 11 6 8,49,51,35,Male,Yes,11.07,Pink to Blue,5,5,0.11150198809860125
158,0mkkxzz3w,129,74,1,3283.79999995232,Experiment,9 4 7 5 9 7,10 6 10 10 4 7,41,47,35,Male,Yes,11.07,Pink to Blue,4,4,0.11150198809860125
159,0mkkxzz3w,130,74,0,3365.29999995232,Experiment,4 2 8 2 5 7,1 6 4 1 5 7,28,24,35,Male,Yes,11.07,Pink to Blue,5,5,0.11150198809860125
160,0mkkxzz3w,131,74,1,2229.19999992847,Experiment,6 1 5 1 8 4,7 7 5 3 1 6,25,29,35,Male,Yes,11.07,Pink to Blue,5,5,0.11150198809860125
161,0mkkxzz3w,132,70,1,1379.70000004768,Experiment,8 10 5 5 8 9,10 8 8 5 5 4,45,40,35,Male,Yes,11.07,Pink to Blue,4,4,0.11150198809860125
162,0mkkxzz3w,133,70,1,6534.10000002384,Experiment,12 9 9 12 5 7,9 8 10 10 5 9,54,51,35,Male,Yes,11.07,Pink to Blue,4,4,0.11150198809860125
163,0mkkxzz3w,134,74,1,1260.10000002384,Experiment,4 8 4 10 5 6,10 7 9 4 10 3,37,43,35,Male,Yes,11.07,Pink to Blue,5,5,0.11150198809860125
164,0mkkxzz3w,135,70,1,3572.89999997616,Experiment,1 5 8 8 5 5,5 4 6 4 6 5,32,30,35,Male,Yes,11.07,Pink to Blue,3,3,0.11150198809860125
165,0mkkxzz3w,136,74,1,2788.40000009537,Experiment,5 1 1 5 7 8,4 8 3 6 3 6,27,30,35,Male,Yes,11.07,Pink to Blue,4,4,0.11150198809860125
166,0mkkxzz3w,137,74,1,1205.10000002384,Experiment,2 6 4 7 4 5,6 7 3 2 8 7,28,33,35,Male,Yes,11.07,Pink to Blue,5,5,0.11150198809860125
167,0mkkxzz3w,138,70,1,4685.60000002384,Experiment,7 5 4 4 1 7,1 2 5 7 5 5,28,25,35,Male,Yes,11.07,Pink to Blue,4,4,0.11150198809860125
168,0mkkxzz3w,139,70,1,1588.29999995232,Experiment,8 9 4 5 3 9,7 5 6 4 8 6,38,36,35,Male,Yes,11.07,Pink to Blue,5,5,0.11150198809860125
169,0mkkxzz3w,140,74,1,933.100000023842,Experiment,12 6 7 12 7 6,8 8 11 10 8 11,50,56,35,Male,Yes,11.07,Pink to Blue,3,3,0.11150198809860125
170,0mkkxzz3w,141,70,1,2372.70000004768,Experiment,3 6 9 6 9 7,6 6 10 5 4 6,40,37,35,Male,Yes,11.07,Pink to Blue,4,4,0.11150198809860125
171,0mkkxzz3w,142,70,1,2701.10000002384,Experiment,10 11 12 10 7 7,12 7 7 6 10 10,57,52,35,Male,Yes,11.07,Pink to Blue,4,4,0.11150198809860125
172,0mkkxzz3w,143,70,1,1253.60000002384,Experiment,9 9 8 6 6 6,5 5 10 10 4 4,44,38,35,Male,Yes,11.07,Pink to Blue,3,3,0.11150198809860125
173,0mkkxzz3w,144,74,1,1035.89999997616,Experiment,11 11 11 8 6 11,8 8 12 10 10 12,58,60,35,Male,Yes,11.07,Pink to Blue,3,3,0.11150198809860125
174,0mkkxzz3w,145,74,1,1925.29999995232,Experiment,6 4 7 3 7 9,7 4 9 6 10 4,36,40,35,Male,Yes,11.07,Pink to Blue,5,5,0.11150198809860125
175,0mkkxzz3w,146,70,1,2229.70000004768,Experiment,10 9 7 11 5 11,5 5 10 9 8 12,53,49,35,Male,Yes,11.07,Pink to Blue,5,5,0.11150198809860125
176,0mkkxzz3w,147,74,1,1357.40000009537,Experiment,9 12 8 7 5 7,12 7 5 10 10 6,48,50,35,Male,Yes,11.07,Pink to Blue,5,5,0.11150198809860125
177,0mkkxzz3w,148,70,1,1209.79999995232,Experiment,4 8 8 5 6 6,7 8 7 7 1 6,37,36,35,Male,Yes,11.07,Pink to Blue,4,4,0.11150198809860125
178,0mkkxzz3w,149,74,1,4380.70000004768,Experiment,9 11 8 5 6 9,11 5 6 8 11 12,48,53,35,Male,Yes,11.07,Pink to Blue,5,5,0.11150198809860125
179,0mkkxzz3w,150,70,1,1004.79999995232,Experiment,7 10 10 8 10 12,12 6 11 5 5 12,57,51,35,Male,Yes,11.07,Pink to Blue,4,4,0.11150198809860125
180,0nple472t,1,70,0,3573.70000004768,Training,2 5 12 3 8 6,5 2 8 2 12 8,36,37,21,Female,Yes,10.08,Pink to Blue,6,4,-0.05529401009547519
181,0nple472t,2,74,0,1907.19999998808,Training,9 3 12 4 12 7,6 6 6 7 3 12,47,40,21,Female,Yes,10.08,Pink to Blue,5,4,-0.05529401009547519
182,0nple472t,3,70,1,2077.60000002384,Training,3 3 12 2 7 12,5 4 7 12 1 7,39,36,21,Female,Yes,10.08,Pink to Blue,4,5,-0.05529401009547519
183,0nple472t,4,70,1,1466.19999998808,Training,2 10 11 7 6 9,5 5 4 1 9 8,45,32,21,Female,Yes,10.08,Pink to Blue,6,5,-0.05529401009547519
184,0nple472t,5,70,1,1420.19999998808,Training,8 12 6 3 9 12,3 5 2 12 8 7,50,37,21,Female,Yes,10.08,Pink to Blue,5,6,-0.05529401009547519
185,0nple472t,6,74,1,958.0,Training,1 7 5 1 10 1,3 7 3 9 10 10,25,42,21,Female,Yes,10.08,Pink to Blue,4,4,-0.05529401009547519
186,0nple472t,7,70,1,3059.0,Training,12 8 9 9 1 10,8 6 9 8 4 4,49,39,21,Female,Yes,10.08,Pink to Blue,5,4,-0.05529401009547519
187,0nple472t,8,70,1,1138.30000001192,Training,5 7 4 11 3 12,4 3 5 2 2 3,42,19,21,Female,Yes,10.08,Pink to Blue,6,4,-0.05529401009547519
188,0nple472t,9,74,0,1284.80000001192,Training,10 7 10 8 11 5,5 10 10 8 9 2,51,44,21,Female,Yes,10.08,Pink to Blue,5,5,-0.05529401009547519
189,0nple472t,10,70,1,926.300000011921,Training,6 10 12 10 12 3,9 8 1 4 1 2,53,25,21,Female,Yes,10.08,Pink to Blue,4,5,-0.05529401009547519
190,0nple472t,11,70,1,1083.30000001192,Training,6 5 8 12 11 4,10 2 9 9 7 8,46,45,21,Female,Yes,10.08,Pink to Blue,6,5,-0.05529401009547519
191,0nple472t,12,70,1,1212.10000002384,Training,6 12 2 11 7 10,2 10 8 6 4 1,48,31,21,Female,Yes,10.08,Pink to Blue,6,6,-0.05529401009547519
192,0nple472t,13,74,1,1163.39999997616,Training,5 1 9 5 4 11,7 2 11 9 8 10,35,47,21,Female,Yes,10.08,Pink to Blue,5,6,-0.05529401009547519
193,0nple472t,14,74,1,1492.09999996424,Training,5 4 11 4 11 4,7 11 2 4 10 6,39,40,21,Female,Yes,10.08,Pink to Blue,3,6,-0.05529401009547519
194,0nple472t,15,74,1,3988.30000001192,Training,9 4 3 4 8 3,1 5 11 2 12 6,31,37,21,Female,Yes,10.08,Pink to Blue,4,6,-0.05529401009547519
195,0nple472t,16,74,0,6076.89999997616,Training,8 7 4 11 3 8,3 10 7 7 7 1,41,35,21,Female,Yes,10.08,Pink to Blue,5,4,-0.05529401009547519
196,0nple472t,17,70,0,981.200000047684,Training,6 1 11 12 2 10,12 10 4 7 4 12,42,49,21,Female,Yes,10.08,Pink to Blue,6,4,-0.05529401009547519
197,0nple472t,18,74,0,1046.20000004768,Training,3 4 5 6 6 11,4 4 11 1 10 3,35,33,21,Female,Yes,10.08,Pink to Blue,5,5,-0.05529401009547519
198,0nple472t,19,70,1,1675.29999995232,Training,5 12 11 3 4 2,9 2 3 5 6 6,37,31,21,Female,Yes,10.08,Pink to Blue,6,5,-0.05529401009547519
199,0nple472t,20,74,1,1265.90000003576,Training,8 3 3 7 4 3,12 8 1 12 12 3,28,48,21,Female,Yes,10.08,Pink to Blue,4,4,-0.05529401009547519
200,0nple472t,21,70,1,1206.19999998808,Training,7 8 10 11 7 11,4 10 3 12 1 4,54,34,21,Female,Yes,10.08,Pink to Blue,4,5,-0.05529401009547519
201,0nple472t,22,70,1,3650.89999997616,Training,10 7 12 8 5 3,6 10 3 1 2 12,45,34,21,Female,Yes,10.08,Pink to Blue,6,6,-0.05529401009547519
202,0nple472t,23,74,1,882.299999952316,Training,12 1 11 8 11 12,11 12 11 10 10 7,55,61,21,Female,Yes,10.08,Pink to Blue,4,4,-0.05529401009547519
203,0nple472t,24,74,1,1075.69999998808,Training,1 6 6 2 8 9,11 6 11 5 1 1,32,35,21,Female,Yes,10.08,Pink to Blue,5,4,-0.05529401009547519
204,0nple472t,25,74,1,988.800000011921,Training,9 7 1 2 10 10,10 9 9 6 12 5,39,51,21,Female,Yes,10.08,Pink to Blue,5,5,-0.05529401009547519
205,0nple472t,26,74,1,1229.30000001192,Training,11 2 3 7 10 12,12 1 11 12 12 10,45,58,21,Female,Yes,10.08,Pink to Blue,6,4,-0.05529401009547519
206,0nple472t,27,74,1,1755.39999997616,Training,2 12 5 3 7 11,5 10 6 10 5 8,40,44,21,Female,Yes,10.08,Pink to Blue,6,4,-0.05529401009547519
207,0nple472t,28,74,1,957.099999964237,Training,5 5 5 3 12 1,12 11 8 7 8 3,31,49,21,Female,Yes,10.08,Pink to Blue,4,5,-0.05529401009547519
208,0nple472t,29,70,1,820.399999976158,Training,9 10 10 12 8 12,11 2 2 7 7 8,61,37,21,Female,Yes,10.08,Pink to Blue,4,4,-0.05529401009547519
209,0nple472t,30,70,1,1104.89999997616,Training,11 9 8 2 9 3,8 3 7 1 4 1,42,24,21,Female,Yes,10.08,Pink to Blue,5,5,-0.05529401009547519
210,0nple472t,1,70,1,3376.39999997616,Experiment,4 5 7 3 4 6,4 7 3 2 5 7,29,28,21,Female,Yes,10.08,Pink to Blue,5,5,-0.05529401009547519
211,0nple472t,2,70,1,1396.79999995232,Experiment,8 10 4 5 3 8,3 10 5 6 7 5,38,36,21,Female,Yes,10.08,Pink to Blue,5,5,-0.05529401009547519
212,0nple472t,3,74,1,2414.39999997616,Experiment,8 2 1 7 1 8,4 6 6 6 8 3,27,33,21,Female,Yes,10.08,Pink to Blue,4,4,-0.05529401009547519
213,0nple472t,4,70,1,1812.89999997616,Experiment,1 8 3 5 5 8,4 5 6 5 1 6,30,27,21,Female,Yes,10.08,Pink to Blue,4,4,-0.05529401009547519
214,0nple472t,5,74,1,1044.59999996424,Experiment,7 3 5 5 2 7,8 8 2 5 4 8,29,35,21,Female,Yes,10.08,Pink to Blue,4,4,-0.05529401009547519
215,0nple472t,6,74,1,5085.69999998808,Experiment,8 6 5 10 9 11,11 5 12 8 10 9,49,55,21,Female,Yes,10.08,Pink to Blue,6,6,-0.05529401009547519
216,0nple472t,7,74,0,1182.30000001192,Experiment,7 5 9 9 9 4,8 3 3 9 7 9,43,39,21,Female,Yes,10.08,Pink to Blue,4,4,-0.05529401009547519
217,0nple472t,8,74,0,2285.09999996424,Experiment,5 7 11 6 10 11,8 10 8 7 6 9,50,48,21,Female,Yes,10.08,Pink to Blue,5,5,-0.05529401009547519
218,0nple472t,9,74,1,860.600000023842,Experiment,4 4 7 9 7 5,4 10 10 4 6 8,36,42,21,Female,Yes,10.08,Pink to Blue,4,4,-0.05529401009547519
219,0nple472t,10,70,0,2333.10000002384,Experiment,7 7 3 4 9 7,6 6 7 9 3 9,37,40,21,Female,Yes,10.08,Pink to Blue,4,4,-0.05529401009547519
220,0nple472t,11,74,0,4886.0,Experiment,6 2 5 6 5 7,5 7 3 6 3 5,31,29,21,Female,Yes,10.08,Pink to Blue,4,4,-0.05529401009547519
221,0nple472t,12,74,0,1819.09999996424,Experiment,8 10 10 9 3 3,9 5 4 6 9 6,43,39,21,Female,Yes,10.08,Pink to Blue,4,4,-0.05529401009547519
222,0nple472t,13,70,1,1970.39999997616,Experiment,6 10 8 10 8 4,10 7 10 3 8 7,46,45,21,Female,Yes,10.08,Pink to Blue,4,4,-0.05529401009547519
223,0nple472t,14,70,1,1322.59999996424,Experiment,6 4 4 4 7 7,2 2 8 3 3 8,32,26,21,Female,Yes,10.08,Pink to Blue,3,3,-0.05529401009547519
224,0nple472t,15,70,1,3306.19999998808,Experiment,5 8 9 6 6 7,4 7 9 5 6 9,41,40,21,Female,Yes,10.08,Pink to Blue,5,5,-0.05529401009547519
225,0nple472t,16,74,1,1347.59999996424,Experiment,7 7 4 6 10 7,3 8 7 8 10 8,41,44,21,Female,Yes,10.08,Pink to Blue,4,4,-0.05529401009547519
226,0nple472t,17,74,1,3357.09999996424,Experiment,4 3 8 2 6 2,1 8 8 5 7 2,25,31,21,Female,Yes,10.08,Pink to Blue,5,5,-0.05529401009547519
227,0nple472t,18,74,1,2628.5,Experiment,1 1 7 8 5 5,8 6 3 6 3 4,27,30,21,Female,Yes,10.08,Pink to Blue,4,4,-0.05529401009547519
228,0nple472t,19,74,0,3525.5,Experiment,12 6 5 7 9 11,5 9 6 11 7 10,50,48,21,Female,Yes,10.08,Pink to Blue,6,6,-0.05529401009547519
229,0nple472t,20,74,1,3261.69999998808,Experiment,3 2 8 3 6 6,3 6 6 7 3 8,28,33,21,Female,Yes,10.08,Pink to Blue,4,4,-0.05529401009547519
230,0nple472t,21,70,1,1221.09999996424,Experiment,8 3 7 10 9 6,4 8 6 3 7 9,43,37,21,Female,Yes,10.08,Pink to Blue,6,6,-0.05529401009547519
231,0nple472t,22,74,1,953.899999976158,Experiment,5 10 4 10 4 5,9 9 6 8 6 6,38,44,21,Female,Yes,10.08,Pink to Blue,3,3,-0.05529401009547519
232,0nple472t,23,70,1,1150.39999997616,Experiment,5 9 5 10 8 8,5 5 8 10 4 8,45,40,21,Female,Yes,10.08,Pink to Blue,4,4,-0.05529401009547519
233,0nple472t,24,70,0,2309.90000003576,Experiment,4 9 3 6 7 7,9 9 3 6 4 10,36,41,21,Female,Yes,10.08,Pink to Blue,5,5,-0.05529401009547519
234,0nple472t,25,74,1,1463.10000002384,Experiment,6 8 12 5 12 5,10 7 7 6 12 12,48,54,21,Female,Yes,10.08,Pink to Blue,4,4,-0.05529401009547519
235,0nple472t,26,70,1,2167.39999997616,Experiment,7 7 7 6 3 3,3 3 7 5 7 3,33,28,21,Female,Yes,10.08,Pink to Blue,3,3,-0.05529401009547519
236,0nple472t,27,70,1,4035.40000003576,Experiment,8 11 11 9 8 5,9 9 5 9 11 6,52,49,21,Female,Yes,10.08,Pink to Blue,4,4,-0.05529401009547519
237,0nple472t,28,74,1,3012.5,Experiment,8 1 4 1 5 6,5 7 6 1 3 7,25,29,21,Female,Yes,10.08,Pink to Blue,5,5,-0.05529401009547519
238,0nple472t,29,70,1,4037.5,Experiment,11 9 7 10 5 9,9 5 5 10 12 8,51,49,21,Female,Yes,10.08,Pink to Blue,5,5,-0.05529401009547519
239,0nple472t,30,74,0,1004.80000001192,Experiment,10 9 6 6 3 10,4 10 10 8 3 8,44,43,21,Female,Yes,10.08,Pink to Blue,4,4,-0.05529401009547519
240,0nple472t,31,70,0,3090.79999995232,Experiment,4 5 4 2 8 6,2 8 5 7 6 2,29,30,21,Female,Yes,10.08,Pink to Blue,5,5,-0.05529401009547519
241,0nple472t,32,70,1,1596.79999995232,Experiment,1 8 7 1 8 6,2 4 7 7 4 3,31,27,21,Female,Yes,10.08,Pink to Blue,4,4,-0.05529401009547519
242,0nple472t,33,70,1,2044.19999998808,Experiment,5 9 9 4 8 10,7 8 9 6 4 6,45,40,21,Female,Yes,10.08,Pink to Blue,5,5,-0.05529401009547519
243,0nple472t,34,74,1,3909.09999996424,Experiment,4 4 8 2 4 3,5 7 1 4 4 7,25,28,21,Female,Yes,10.08,Pink to Blue,4,4,-0.05529401009547519
244,0nple472t,35,70,1,1612.0,Experiment,7 6 3 5 6 1,5 3 8 3 2 6,28,27,21,Female,Yes,10.08,Pink to Blue,5,5,-0.05529401009547519
245,0nple472t,36,74,0,1349.5,Experiment,7 8 4 9 10 4,4 8 7 6 10 6,42,41,21,Female,Yes,10.08,Pink to Blue,5,5,-0.05529401009547519
246,0nple472t,37,74,1,2573.10000002384,Experiment,5 10 11 9 11 5,7 6 11 9 11 11,51,55,21,Female,Yes,10.08,Pink to Blue,4,4,-0.05529401009547519
247,0nple472t,38,70,1,4293.30000001192,Experiment,7 3 4 3 5 8,5 2 2 1 7 8,30,25,21,Female,Yes,10.08,Pink to Blue,5,5,-0.05529401009547519
248,0nple472t,39,70,1,3012.89999997616,Experiment,7 7 5 9 8 10,5 9 10 6 10 3,46,43,21,Female,Yes,10.08,Pink to Blue,5,5,-0.05529401009547519
249,0nple472t,40,74,0,2677.19999998808,Experiment,4 1 6 7 7 8,7 7 1 8 2 4,33,29,21,Female,Yes,10.08,Pink to Blue,5,5,-0.05529401009547519
250,0nple472t,41,74,1,893.899999976158,Experiment,11 7 8 12 5 12,10 9 9 12 11 7,55,58,21,Female,Yes,10.08,Pink to Blue,5,5,-0.05529401009547519
251,0nple472t,42,70,1,2381.79999995232,Experiment,4 8 5 8 9 6,10 9 6 4 6 3,40,38,21,Female,Yes,10.08,Pink to Blue,5,5,-0.05529401009547519
252,0nple472t,43,70,0,1853.89999997616,Experiment,7 11 9 6 9 11,12 6 12 8 9 12,53,59,21,Female,Yes,10.08,Pink to Blue,4,4,-0.05529401009547519
253,0nple472t,44,70,1,3364.39999997616,Experiment,5 6 3 1 7 5,5 1 6 4 8 1,27,25,21,Female,Yes,10.08,Pink to Blue,5,5,-0.05529401009547519
254,0nple472t,45,74,1,1908.19999998808,Experiment,11 11 7 8 9 6,10 9 7 11 8 8,52,53,21,Female,Yes,10.08,Pink to Blue,5,5,-0.05529401009547519
255,0nple472t,46,70,1,2768.5,Experiment,12 10 6 12 8 10,12 9 10 12 9 5,58,57,21,Female,Yes,10.08,Pink to Blue,4,4,-0.05529401009547519
256,0nple472t,47,74,1,4580.59999996424,Experiment,10 9 7 7 9 11,6 10 9 11 9 10,53,55,21,Female,Yes,10.08,Pink to Blue,4,4,-0.05529401009547519
257,0nple472t,48,74,0,1252.19999998808,Experiment,7 3 5 10 7 10,7 3 6 8 7 8,42,39,21,Female,Yes,10.08,Pink to Blue,4,4,-0.05529401009547519
258,0nple472t,49,74,1,5893.10000002384,Experiment,4 8 4 1 5 2,4 8 3 5 2 3,24,25,21,Female,Yes,10.08,Pink to Blue,5,5,-0.05529401009547519
259,0nple472t,50,74,1,1052.69999998808,Experiment,7 6 10 6 12 8,12 12 5 6 9 11,49,55,21,Female,Yes,10.08,Pink to Blue,5,5,-0.05529401009547519
260,0nple472t,51,70,1,3213.0,Experiment,12 11 8 11 5 6,9 5 8 6 9 11,53,48,21,Female,Yes,10.08,Pink to Blue,5,5,-0.05529401009547519
261,0nple472t,52,74,0,956.400000035763,Experiment,10 7 10 5 12 6,12 5 9 8 7 7,50,48,21,Female,Yes,10.08,Pink to Blue,5,5,-0.05529401009547519
262,0nple472t,53,70,1,1091.59999996424,Experiment,7 7 11 12 9 8,6 12 6 5 9 11,54,49,21,Female,Yes,10.08,Pink to Blue,5,5,-0.05529401009547519
263,0nple472t,54,70,1,2036.59999996424,Experiment,6 6 2 8 8 4,6 8 5 1 5 8,34,33,21,Female,Yes,10.08,Pink to Blue,4,4,-0.05529401009547519
264,0nple472t,55,74,1,1518.40000003576,Experiment,4 4 10 9 3 7,9 6 5 5 10 7,37,42,21,Female,Yes,10.08,Pink to Blue,5,5,-0.05529401009547519
265,0nple472t,56,70,1,1169.30000001192,Experiment,8 5 5 9 8 4,4 3 4 10 6 10,39,37,21,Female,Yes,10.08,Pink to Blue,4,4,-0.05529401009547519
266,0nple472t,57,74,1,2634.60000002384,Experiment,9 4 6 9 9 9,10 8 6 6 8 10,46,48,21,Female,Yes,10.08,Pink to Blue,3,3,-0.05529401009547519
267,0nple472t,58,70,0,4292.79999995232,Experiment,4 7 6 4 5 2,6 7 8 2 7 3,28,33,21,Female,Yes,10.08,Pink to Blue,5,5,-0.05529401009547519
268,0nple472t,59,70,0,1748.69999998808,Experiment,7 8 6 7 7 1,8 4 8 5 6 6,36,37,21,Female,Yes,10.08,Pink to Blue,4,4,-0.05529401009547519
269,0nple472t,60,70,0,2035.5,Experiment,9 5 6 8 4 4,6 8 7 4 7 10,36,42,21,Female,Yes,10.08,Pink to Blue,5,5,-0.05529401009547519
270,0nple472t,61,70,1,2863.80000001192,Experiment,8 5 8 8 10 6,3 9 10 4 3 10,45,39,21,Female,Yes,10.08,Pink to Blue,4,4,-0.05529401009547519
271,0nple472t,62,70,1,1955.40000003576,Experiment,6 11 10 7 12 11,8 10 9 11 8 6,57,52,21,Female,Yes,10.08,Pink to Blue,5,5,-0.05529401009547519
272,0nple472t,63,74,0,5436.19999998808,Experiment,10 6 4 9 4 7,7 9 7 4 3 6,40,36,21,Female,Yes,10.08,Pink to Blue,5,5,-0.05529401009547519
273,0nple472t,64,74,1,1275.20000004768,Experiment,2 8 8 4 1 2,2 6 7 3 6 3,25,27,21,Female,Yes,10.08,Pink to Blue,4,4,-0.05529401009547519
274,0nple472t,65,70,1,2259.0,Experiment,7 3 3 4 7 6,3 1 1 8 8 4,30,25,21,Female,Yes,10.08,Pink to Blue,4,4,-0.05529401009547519
275,0nple472t,66,70,0,4473.30000001192,Experiment,10 8 3 7 6 3,3 9 8 5 7 7,37,39,21,Female,Yes,10.08,Pink to Blue,5,5,-0.05529401009547519
276,0nple472t,67,74,1,886.0,Experiment,7 8 6 5 11 11,11 5 5 12 10 6,48,49,21,Female,Yes,10.08,Pink to Blue,5,5,-0.05529401009547519
277,0nple472t,68,74,1,1748.19999998808,Experiment,6 8 3 7 3 10,9 5 3 7 9 8,37,41,21,Female,Yes,10.08,Pink to Blue,5,5,-0.05529401009547519
278,0nple472t,69,74,1,1698.0,Experiment,1 4 5 5 3 6,6 7 4 3 2 7,24,29,21,Female,Yes,10.08,Pink to Blue,5,5,-0.05529401009547519
279,0nple472t,70,74,1,2069.40000003576,Experiment,4 7 10 6 10 6,10 8 4 6 10 10,43,48,21,Female,Yes,10.08,Pink to Blue,4,4,-0.05529401009547519
280,0nple472t,71,70,1,6077.0,Experiment,3 2 7 6 4 6,1 2 7 4 8 4,28,26,21,Female,Yes,10.08,Pink to Blue,5,5,-0.05529401009547519
281,0nple472t,72,74,1,4084.09999996424,Experiment,6 7 10 11 10 7,12 12 8 8 6 9,51,55,21,Female,Yes,10.08,Pink to Blue,4,4,-0.05529401009547519
282,0nple472t,73,70,1,1968.30000001192,Experiment,8 10 7 6 10 8,9 8 9 3 10 9,49,48,21,Female,Yes,10.08,Pink to Blue,4,4,-0.05529401009547519
283,0nple472t,74,74,0,4053.60000002384,Experiment,2 3 8 6 8 3,4 2 1 1 8 8,30,24,21,Female,Yes,10.08,Pink to Blue,4,4,-0.05529401009547519
284,0nple472t,75,74,1,2500.59999996424,Experiment,3 10 4 6 10 3,10 5 4 5 10 8,36,42,21,Female,Yes,10.08,Pink to Blue,4,4,-0.05529401009547519
285,0nple472t,76,74,1,1116.80000001192,Experiment,10 6 5 10 3 3,5 6 9 5 9 8,37,42,21,Female,Yes,10.08,Pink to Blue,4,4,-0.05529401009547519
286,0nple472t,77,70,0,1652.39999997616,Experiment,10 8 9 8 10 9,9 9 5 12 9 12,54,56,21,Female,Yes,10.08,Pink to Blue,3,3,-0.05529401009547519
287,0nple472t,78,70,1,3500.10000002384,Experiment,7 4 8 9 7 8,5 7 8 9 7 5,43,41,21,Female,Yes,10.08,Pink to Blue,4,4,-0.05529401009547519
288,0nple472t,79,70,1,2236.60000002384,Experiment,7 6 5 6 8 3,8 4 7 7 1 6,35,33,21,Female,Yes,10.08,Pink to Blue,5,5,-0.05529401009547519
289,0nple472t,80,74,1,3024.89999997616,Experiment,6 4 4 3 2 5,6 7 2 1 3 7,24,26,21,Female,Yes,10.08,Pink to Blue,5,5,-0.05529401009547519
290,0nple472t,81,74,1,3003.10000002384,Experiment,5 7 9 5 9 5,8 5 9 9 9 5,40,45,21,Female,Yes,10.08,Pink to Blue,3,3,-0.05529401009547519
291,0nple472t,82,70,1,1053.29999995232,Experiment,11 8 8 9 11 5,6 8 8 7 12 8,52,49,21,Female,Yes,10.08,Pink to Blue,4,4,-0.05529401009547519
292,0nple472t,83,70,1,3220.69999998808,Experiment,4 6 7 6 10 10,9 5 5 8 8 4,43,39,21,Female,Yes,10.08,Pink to Blue,4,4,-0.05529401009547519
293,0nple472t,84,74,0,1373.39999997616,Experiment,1 3 2 8 5 7,5 6 7 3 2 1,26,24,21,Female,Yes,10.08,Pink to Blue,6,6,-0.05529401009547519
294,0nple472t,85,74,1,4364.59999996424,Experiment,1 5 1 6 7 4,4 8 2 2 5 7,24,28,21,Female,Yes,10.08,Pink to Blue,5,5,-0.05529401009547519
295,0nple472t,86,70,1,1525.79999995232,Experiment,5 8 2 4 5 6,2 6 4 3 7 2,30,24,21,Female,Yes,10.08,Pink to Blue,5,5,-0.05529401009547519
296,0nple472t,87,70,1,2772.90000003576,Experiment,2 6 8 1 7 1,4 3 7 2 7 1,25,24,21,Female,Yes,10.08,Pink to Blue,5,5,-0.05529401009547519
297,0nple472t,88,74,0,3412.39999997616,Experiment,10 10 9 11 7 5,7 10 9 7 6 12,52,51,21,Female,Yes,10.08,Pink to Blue,5,5,-0.05529401009547519
298,0nple472t,89,70,1,1485.19999998808,Experiment,11 11 5 8 12 10,8 12 11 5 6 11,57,53,21,Female,Yes,10.08,Pink to Blue,5,5,-0.05529401009547519
299,0nple472t,90,70,1,5354.5,Experiment,8 5 4 8 2 4,3 6 3 7 6 2,31,27,21,Female,Yes,10.08,Pink to Blue,4,4,-0.05529401009547519
300,0nple472t,91,74,1,2491.19999998808,Experiment,7 8 3 7 6 5,6 5 8 9 4 9,36,41,21,Female,Yes,10.08,Pink to Blue,5,5,-0.05529401009547519
301,0nple472t,92,70,1,3769.30000001192,Experiment,4 4 7 1 5 7,2 7 1 5 5 5,28,25,21,Female,Yes,10.08,Pink to Blue,4,4,-0.05529401009547519
302,0nple472t,93,70,1,1844.10000002384,Experiment,9 12 7 5 9 12,9 5 10 8 9 10,54,51,21,Female,Yes,10.08,Pink to Blue,4,4,-0.05529401009547519
303,0nple472t,94,74,1,4385.90000003576,Experiment,10 7 3 9 7 3,10 8 8 5 5 6,39,42,21,Female,Yes,10.08,Pink to Blue,4,4,-0.05529401009547519
304,0nple472t,95,70,1,3357.5,Experiment,12 11 8 6 9 6,9 11 5 6 9 8,52,48,21,Female,Yes,10.08,Pink to Blue,5,5,-0.05529401009547519
305,0nple472t,96,70,0,1450.30000001192,Experiment,7 2 4 7 7 7,6 4 8 4 6 8,34,36,21,Female,Yes,10.08,Pink to Blue,3,3,-0.05529401009547519
306,0nple472t,97,70,0,4773.80000001192,Experiment,5 5 4 8 5 2,6 6 5 8 1 6,29,32,21,Female,Yes,10.08,Pink to Blue,4,4,-0.05529401009547519
307,0nple472t,98,70,1,3771.0,Experiment,7 10 4 9 3 10,5 6 4 8 10 4,43,37,21,Female,Yes,10.08,Pink to Blue,5,5,-0.05529401009547519
308,0nple472t,99,74,0,1154.69999998808,Experiment,5 6 5 7 3 8,3 8 1 8 7 4,34,31,21,Female,Yes,10.08,Pink to Blue,5,5,-0.05529401009547519
309,0nple472t,100,74,1,891.0,Experiment,5 11 10 8 11 12,9 10 12 10 7 11,57,59,21,Female,Yes,10.08,Pink to Blue,5,5,-0.05529401009547519
310,0nple472t,101,70,0,3990.10000002384,Experiment,5 4 9 3 6 9,3 10 3 8 4 9,36,37,21,Female,Yes,10.08,Pink to Blue,5,5,-0.05529401009547519
311,0nple472t,102,70,1,1901.19999998808,Experiment,7 6 8 4 5 1,7 5 6 2 4 1,31,25,21,Female,Yes,10.08,Pink to Blue,6,6,-0.05529401009547519
312,0nple472t,103,70,1,1617.5,Experiment,4 10 6 10 7 10,9 5 7 4 7 9,47,41,21,Female,Yes,10.08,Pink to Blue,4,4,-0.05529401009547519
313,0nple472t,104,70,1,3789.69999998808,Experiment,7 10 4 9 5 3,9 3 5 4 8 7,38,36,21,Female,Yes,10.08,Pink to Blue,6,6,-0.05529401009547519
314,0nple472t,105,74,1,3246.09999996424,Experiment,3 4 7 2 5 4,8 7 3 2 4 3,25,27,21,Female,Yes,10.08,Pink to Blue,5,5,-0.05529401009547519
315,0nple472t,106,74,1,2573.10000002384,Experiment,4 1 2 5 5 7,2 8 5 4 7 2,24,28,21,Female,Yes,10.08,Pink to Blue,5,5,-0.05529401009547519
316,0nple472t,107,70,1,2070.80000001192,Experiment,8 10 11 9 11 12,11 9 11 7 10 12,61,60,21,Female,Yes,10.08,Pink to Blue,5,5,-0.05529401009547519
317,0nple472t,108,74,0,5801.59999996424,Experiment,6 7 11 7 8 12,9 8 7 11 6 8,51,49,21,Female,Yes,10.08,Pink to Blue,5,5,-0.05529401009547519
318,0nple472t,109,70,0,1868.80000001192,Experiment,1 7 5 1 6 7,7 3 2 5 7 7,27,31,21,Female,Yes,10.08,Pink to Blue,4,4,-0.05529401009547519
319,0nple472t,110,74,0,7541.5,Experiment,7 4 4 8 8 1,8 6 2 1 6 8,32,31,21,Female,Yes,10.08,Pink to Blue,4,4,-0.05529401009547519
320,0nple472t,111,74,1,1061.30000001192,Experiment,7 5 4 5 2 1,7 7 2 4 8 1,24,29,21,Female,Yes,10.08,Pink to Blue,5,5,-0.05529401009547519
321,0nple472t,112,70,1,1300.19999998808,Experiment,9 3 7 9 6 6,6 6 5 10 4 6,40,37,21,Female,Yes,10.08,Pink to Blue,4,4,-0.05529401009547519
322,0nple472t,113,70,1,1540.39999997616,Experiment,7 5 9 8 10 8,3 9 6 8 9 10,47,45,21,Female,Yes,10.08,Pink to Blue,5,5,-0.05529401009547519
323,0nple472t,114,74,1,1214.5,Experiment,11 8 11 6 11 11,12 8 12 8 10 10,58,60,21,Female,Yes,10.08,Pink to Blue,3,3,-0.05529401009547519
324,0nple472t,115,74,0,5187.70000004768,Experiment,12 5 12 11 8 8,5 6 10 12 12 10,56,55,21,Female,Yes,10.08,Pink to Blue,4,4,-0.05529401009547519
325,0nple472t,116,70,1,1513.5,Experiment,1 6 8 5 5 4,2 8 8 3 4 1,29,26,21,Female,Yes,10.08,Pink to Blue,5,5,-0.05529401009547519
326,0nple472t,117,74,1,1188.39999997616,Experiment,7 9 6 8 3 3,6 4 10 7 4 9,36,40,21,Female,Yes,10.08,Pink to Blue,5,5,-0.05529401009547519
327,0nple472t,118,70,1,885.899999976158,Experiment,7 5 11 10 9 11,10 8 5 5 12 9,53,49,21,Female,Yes,10.08,Pink to Blue,5,5,-0.05529401009547519
328,0nple472t,119,74,1,3798.90000003576,Experiment,9 6 6 5 4 7,10 4 9 5 5 6,37,39,21,Female,Yes,10.08,Pink to Blue,5,5,-0.05529401009547519
329,0nple472t,120,74,0,1018.0,Experiment,12 5 10 10 9 10,9 8 9 12 9 6,56,53,21,Female,Yes,10.08,Pink to Blue,4,4,-0.05529401009547519
330,0nple472t,121,70,1,1055.19999998808,Experiment,7 7 8 10 6 3,6 4 5 10 3 10,41,38,21,Female,Yes,10.08,Pink to Blue,5,5,-0.05529401009547519
331,0nple472t,122,74,1,1412.69999998808,Experiment,11 9 6 6 9 7,12 8 12 6 6 10,48,54,21,Female,Yes,10.08,Pink to Blue,4,4,-0.05529401009547519
332,0nple472t,123,70,1,1180.79999995232,Experiment,6 12 12 12 10 8,8 9 12 6 8 12,60,55,21,Female,Yes,10.08,Pink to Blue,4,4,-0.05529401009547519
333,0nple472t,124,74,1,1666.0,Experiment,6 4 3 10 9 9,9 9 10 3 8 6,41,45,21,Female,Yes,10.08,Pink to Blue,5,5,-0.05529401009547519
334,0nple472t,125,70,1,2355.60000002384,Experiment,5 9 7 8 8 3,5 10 8 5 4 7,40,39,21,Female,Yes,10.08,Pink to Blue,5,5,-0.05529401009547519
335,0nple472t,126,74,0,1209.5,Experiment,7 10 10 7 3 7,7 8 7 6 8 6,44,42,21,Female,Yes,10.08,Pink to Blue,3,3,-0.05529401009547519
336,0nple472t,127,70,1,3125.69999998808,Experiment,5 5 6 10 7 4,3 10 6 6 4 7,37,36,21,Female,Yes,10.08,Pink to Blue,5,5,-0.05529401009547519
337,0nple472t,128,70,1,1846.30000001192,Experiment,12 6 11 6 9 8,9 5 11 10 5 8,52,48,21,Female,Yes,10.08,Pink to Blue,5,5,-0.05529401009547519
338,0nple472t,129,74,1,1939.79999995232,Experiment,11 7 8 6 11 8,5 5 10 12 11 12,51,55,21,Female,Yes,10.08,Pink to Blue,4,4,-0.05529401009547519
339,0nple472t,130,70,0,2725.60000002384,Experiment,7 5 2 5 3 2,6 2 4 8 2 8,24,30,21,Female,Yes,10.08,Pink to Blue,4,4,-0.05529401009547519
340,0nple472t,131,70,1,2434.10000002384,Experiment,7 6 10 10 7 11,12 8 5 6 12 6,51,49,21,Female,Yes,10.08,Pink to Blue,4,4,-0.05529401009547519
341,0nple472t,132,70,1,2749.5,Experiment,10 7 11 11 7 8,5 5 12 8 7 12,54,49,21,Female,Yes,10.08,Pink to Blue,4,4,-0.05529401009547519
342,0nple472t,133,74,1,4291.0,Experiment,7 10 10 7 12 6,12 7 10 7 10 11,52,57,21,Female,Yes,10.08,Pink to Blue,4,4,-0.05529401009547519
343,0nple472t,134,70,1,1574.30000001192,Experiment,11 11 7 10 11 7,11 7 9 11 7 7,57,52,21,Female,Yes,10.08,Pink to Blue,3,3,-0.05529401009547519
344,0nple472t,135,74,1,819.899999976158,Experiment,9 9 5 12 5 11,10 12 7 7 10 8,51,54,21,Female,Yes,10.08,Pink to Blue,4,4,-0.05529401009547519
345,0nple472t,136,74,1,3085.69999998808,Experiment,8 4 1 3 5 3,6 8 3 6 2 1,24,26,21,Female,Yes,10.08,Pink to Blue,5,5,-0.05529401009547519
346,0nple472t,137,74,0,2268.60000002384,Experiment,10 9 7 9 6 8,7 10 5 9 9 8,49,48,21,Female,Yes,10.08,Pink to Blue,5,5,-0.05529401009547519
347,0nple472t,138,70,1,4563.0,Experiment,8 7 9 7 12 6,9 6 8 12 8 5,49,48,21,Female,Yes,10.08,Pink to Blue,5,5,-0.05529401009547519
348,0nple472t,139,74,1,2988.80000001192,Experiment,4 8 8 5 4 2,8 6 8 8 2 4,31,36,21,Female,Yes,10.08,Pink to Blue,4,4,-0.05529401009547519
349,0nple472t,140,74,1,2452.30000001192,Experiment,6 6 7 5 8 4,8 4 5 3 9 9,36,38,21,Female,Yes,10.08,Pink to Blue,5,5,-0.05529401009547519
350,0nple472t,141,70,1,1185.10000002384,Experiment,4 6 5 8 7 7,7 3 8 5 6 7,37,36,21,Female,Yes,10.08,Pink to Blue,5,5,-0.05529401009547519
351,0nple472t,142,74,1,1277.40000003576,Experiment,11 6 12 8 8 5,6 7 11 8 10 10,50,52,21,Female,Yes,10.08,Pink to Blue,5,5,-0.05529401009547519
352,0nple472t,143,70,1,893.200000047684,Experiment,8 10 12 9 10 12,11 12 10 11 11 5,61,60,21,Female,Yes,10.08,Pink to Blue,4,4,-0.05529401009547519
353,0nple472t,144,74,1,2873.80000001192,Experiment,12 5 11 12 5 6,10 10 12 8 10 7,51,57,21,Female,Yes,10.08,Pink to Blue,4,4,-0.05529401009547519
354,0nple472t,145,74,0,2853.40000003576,Experiment,5 5 5 8 1 8,6 5 4 5 4 6,32,30,21,Female,Yes,10.08,Pink to Blue,3,3,-0.05529401009547519
355,0nple472t,146,70,1,1150.0,Experiment,7 8 6 11 10 11,8 9 9 10 7 5,53,48,21,Female,Yes,10.08,Pink to Blue,5,5,-0.05529401009547519
356,0nple472t,147,74,0,1577.79999995232,Experiment,6 10 8 9 12 9,11 6 7 10 6 8,54,48,21,Female,Yes,10.08,Pink to Blue,5,5,-0.05529401009547519
357,0nple472t,148,70,1,723.300000011921,Experiment,12 9 6 11 10 6,9 6 8 8 12 10,54,53,21,Female,Yes,10.08,Pink to Blue,5,5,-0.05529401009547519
358,0nple472t,149,74,1,2220.39999997616,Experiment,7 12 6 12 7 6,10 11 11 8 8 8,50,56,21,Female,Yes,10.08,Pink to Blue,3,3,-0.05529401009547519
359,0nple472t,150,74,0,4027.5,Experiment,9 10 5 12 8 9,6 12 5 8 7 12,53,50,21,Female,Yes,10.08,Pink to Blue,5,5,-0.05529401009547519
360,0r7tk1rd6,1,70,0,9805.5,Training,1 11 9 4 4 4,3 9 5 3 2 12,33,34,38,Male,Yes,11.34,Blue to Pink,4,5,0.06743125801324332
361,0r7tk1rd6,2,74,1,952.900000095367,Training,2 4 4 5 10 4,7 12 12 3 8 10,29,52,38,Male,Yes,11.34,Blue to Pink,4,5,0.06743125801324332
362,0r7tk1rd6,3,70,1,1050.80000019073,Training,6 12 9 6 5 7,4 11 4 10 5 2,45,36,38,Male,Yes,11.34,Blue to Pink,5,5,0.06743125801324332
363,0r7tk1rd6,4,70,1,1281.5,Training,4 6 5 10 9 7,8 8 8 4 1 2,41,31,38,Male,Yes,11.34,Blue to Pink,6,4,0.06743125801324332
364,0r7tk1rd6,5,70,1,1155.0,Training,11 3 7 8 10 7,1 2 10 5 8 6,46,32,38,Male,Yes,11.34,Blue to Pink,5,6,0.06743125801324332
365,0r7tk1rd6,6,70,0,1241.59999990463,Training,1 12 6 12 3 8,10 6 11 10 7 8,42,52,38,Male,Yes,11.34,Blue to Pink,5,5,0.06743125801324332
366,0r7tk1rd6,7,74,1,1693.20000004768,Training,10 8 2 2 2 10,7 6 3 3 8 11,34,38,38,Male,Yes,11.34,Blue to Pink,3,5,0.06743125801324332
367,0r7tk1rd6,8,74,1,1803.60000014305,Training,7 4 1 9 11 8,10 10 10 11 4 3,40,48,38,Male,Yes,11.34,Blue to Pink,6,4,0.06743125801324332
368,0r7tk1rd6,9,70,1,4275.39999985695,Training,11 5 2 11 4 7,10 3 1 11 6 2,40,33,38,Male,Yes,11.34,Blue to Pink,5,6,0.06743125801324332
369,0r7tk1rd6,10,74,1,2787.90000009537,Training,4 4 4 10 2 11,11 4 6 12 6 9,35,48,38,Male,Yes,11.34,Blue to Pink,4,5,0.06743125801324332
370,0r7tk1rd6,11,70,1,1362.79999995232,Training,7 7 1 12 6 1,2 3 2 2 9 6,34,24,38,Male,Yes,11.34,Blue to Pink,4,4,0.06743125801324332
371,0r7tk1rd6,12,70,0,3486.60000014305,Training,9 3 3 3 4 12,7 3 4 12 4 12,34,42,38,Male,Yes,11.34,Blue to Pink,4,4,0.06743125801324332
372,0r7tk1rd6,13,74,1,1044.39999985695,Training,2 2 12 3 8 3,7 11 10 8 11 1,30,48,38,Male,Yes,11.34,Blue to Pink,4,5,0.06743125801324332
373,0r7tk1rd6,14,74,1,954.900000095367,Training,10 2 1 2 11 3,8 8 5 1 12 5,29,39,38,Male,Yes,11.34,Blue to Pink,5,4,0.06743125801324332
374,0r7tk1rd6,15,70,1,1819.70000004768,Training,5 10 3 9 8 5,10 8 6 6 5 3,40,38,38,Male,Yes,11.34,Blue to Pink,5,5,0.06743125801324332
375,0r7tk1rd6,16,70,1,1515.10000014305,Training,7 7 12 7 7 1,4 9 8 6 10 3,41,40,38,Male,Yes,11.34,Blue to Pink,3,6,0.06743125801324332
376,0r7tk1rd6,17,70,1,2667.20000004768,Training,2 9 8 9 5 11,2 10 11 9 6 2,44,40,38,Male,Yes,11.34,Blue to Pink,5,5,0.06743125801324332
377,0r7tk1rd6,18,74,0,1851.60000014305,Training,7 4 10 3 7 12,9 9 12 1 8 3,43,42,38,Male,Yes,11.34,Blue to Pink,5,5,0.06743125801324332
378,0r7tk1rd6,19,70,0,3619.59999990463,Training,9 1 3 10 4 6,4 11 7 8 2 3,33,35,38,Male,Yes,11.34,Blue to Pink,6,6,0.06743125801324332
379,0r7tk1rd6,20,70,1,938.5,Training,11 3 7 6 6 1,2 4 3 6 5 1,34,21,38,Male,Yes,11.34,Blue to Pink,5,6,0.06743125801324332
380,0r7tk1rd6,21,70,1,4195.5,Training,5 4 5 12 10 3,1 2 5 12 5 2,39,27,38,Male,Yes,11.34,Blue to Pink,5,4,0.06743125801324332
381,0r7tk1rd6,22,70,1,1491.5,Training,9 10 8 5 7 11,9 12 1 6 1 8,50,37,38,Male,Yes,11.34,Blue to Pink,6,5,0.06743125801324332
382,0r7tk1rd6,23,70,1,3562.90000009537,Training,10 6 2 6 11 5,9 1 4 4 7 11,40,36,38,Male,Yes,11.34,Blue to Pink,5,5,0.06743125801324332
383,0r7tk1rd6,24,74,1,1371.39999985695,Training,2 5 1 2 10 4,3 4 4 12 9 1,24,33,38,Male,Yes,11.34,Blue to Pink,5,5,0.06743125801324332
384,0r7tk1rd6,25,74,1,1459.30000019073,Training,3 4 7 3 3 4,9 10 11 7 9 3,24,49,38,Male,Yes,11.34,Blue to Pink,3,5,0.06743125801324332
385,0r7tk1rd6,26,70,1,1411.29999995232,Training,12 12 4 2 12 7,6 8 2 12 6 9,49,43,38,Male,Yes,11.34,Blue to Pink,4,5,0.06743125801324332
386,0r7tk1rd6,27,70,1,6787.70000004768,Training,6 9 4 8 4 11,8 4 11 3 6 7,42,39,38,Male,Yes,11.34,Blue to Pink,5,6,0.06743125801324332
387,0r7tk1rd6,28,70,1,3154.40000009537,Training,3 1 9 11 5 8,2 11 4 5 1 3,37,26,38,Male,Yes,11.34,Blue to Pink,6,6,0.06743125801324332
388,0r7tk1rd6,29,74,1,1124.19999980927,Training,2 11 1 4 8 4,9 5 12 12 9 11,30,58,38,Male,Yes,11.34,Blue to Pink,5,4,0.06743125801324332
389,0r7tk1rd6,30,74,0,3835.29999995232,Training,9 1 11 11 7 10,8 7 10 10 7 6,49,48,38,Male,Yes,11.34,Blue to Pink,5,4,0.06743125801324332
390,0r7tk1rd6,1,74,1,1369.70000004768,Experiment,12 9 9 5 10 12,10 6 10 8 12 12,57,58,38,Male,Yes,11.34,Blue to Pink,4,4,0.06743125801324332
391,0r7tk1rd6,2,74,1,4507.5,Experiment,7 11 12 10 11 9,11 11 12 9 10 8,60,61,38,Male,Yes,11.34,Blue to Pink,5,5,0.06743125801324332
392,0r7tk1rd6,3,70,1,4715.40000009537,Experiment,7 2 5 5 6 6,5 7 3 3 6 5,31,29,38,Male,Yes,11.34,Blue to Pink,4,4,0.06743125801324332
393,0r7tk1rd6,4,70,1,1475.59999990463,Experiment,5 5 8 8 1 5,5 4 5 4 6 6,32,30,38,Male,Yes,11.34,Blue to Pink,3,3,0.06743125801324332
394,0r7tk1rd6,5,70,1,4957.89999985695,Experiment,12 7 12 6 10 7,12 6 12 5 8 5,54,48,38,Male,Yes,11.34,Blue to Pink,4,4,0.06743125801324332
395,0r7tk1rd6,6,74,1,5796.29999995232,Experiment,5 6 4 10 10 3,10 7 7 6 3 8,38,41,38,Male,Yes,11.34,Blue to Pink,5,5,0.06743125801324332
396,0r7tk1rd6,7,74,1,2761.90000009537,Experiment,3 10 9 10 3 4,10 8 8 5 6 8,39,45,38,Male,Yes,11.34,Blue to Pink,4,4,0.06743125801324332
397,0r7tk1rd6,8,74,0,8460.0,Experiment,4 2 6 6 8 8,5 6 1 8 5 8,34,33,38,Male,Yes,11.34,Blue to Pink,4,4,0.06743125801324332
398,0r7tk1rd6,9,74,1,1884.10000014305,Experiment,10 3 10 4 4 6,5 5 4 8 8 9,37,39,38,Male,Yes,11.34,Blue to Pink,4,4,0.06743125801324332
399,0r7tk1rd6,10,70,0,1604.70000004768,Experiment,4 1 3 8 8 1,3 3 4 6 7 7,25,30,38,Male,Yes,11.34,Blue to Pink,4,4,0.06743125801324332
400,0r7tk1rd6,11,74,1,4651.59999990463,Experiment,5 9 8 11 10 5,11 12 9 6 8 6,48,52,38,Male,Yes,11.34,Blue to Pink,5,5,0.06743125801324332
401,0r7tk1rd6,12,74,1,2339.40000009537,Experiment,7 3 8 8 7 6,10 7 7 5 3 10,39,42,38,Male,Yes,11.34,Blue to Pink,4,4,0.06743125801324332
402,0r7tk1rd6,13,70,0,9788.39999985695,Experiment,6 12 10 10 12 5,11 5 8 12 8 12,55,56,38,Male,Yes,11.34,Blue to Pink,4,4,0.06743125801324332
403,0r7tk1rd6,14,74,1,3414.5,Experiment,5 12 5 9 8 10,5 11 10 9 7 11,49,53,38,Male,Yes,11.34,Blue to Pink,5,5,0.06743125801324332
404,0r7tk1rd6,15,74,1,2962.40000009537,Experiment,11 12 6 5 8 11,12 5 11 11 10 8,53,57,38,Male,Yes,11.34,Blue to Pink,5,5,0.06743125801324332
405,0r7tk1rd6,16,70,1,4860.5,Experiment,8 7 3 8 8 10,7 4 7 6 7 10,44,41,38,Male,Yes,11.34,Blue to Pink,4,4,0.06743125801324332
406,0r7tk1rd6,17,74,1,3644.79999995232,Experiment,5 9 8 11 6 9,9 12 11 8 6 6,48,52,38,Male,Yes,11.34,Blue to Pink,5,5,0.06743125801324332
407,0r7tk1rd6,18,74,1,9443.40000009537,Experiment,10 4 6 6 7 10,10 4 10 6 8 10,43,48,38,Male,Yes,11.34,Blue to Pink,4,4,0.06743125801324332
408,0r7tk1rd6,19,70,1,1475.5,Experiment,8 11 11 7 10 7,8 7 12 12 5 5,54,49,38,Male,Yes,11.34,Blue to Pink,4,4,0.06743125801324332
409,0r7tk1rd6,20,74,1,2980.5,Experiment,9 7 5 5 9 5,5 9 8 5 9 9,40,45,38,Male,Yes,11.34,Blue to Pink,3,3,0.06743125801324332
410,0r7tk1rd6,21,74,1,7396.39999985695,Experiment,9 6 3 7 7 4,6 4 9 9 3 10,36,41,38,Male,Yes,11.34,Blue to Pink,5,5,0.06743125801324332
411,0r7tk1rd6,22,74,1,2899.0,Experiment,9 8 7 4 3 5,7 9 10 3 4 5,36,38,38,Male,Yes,11.34,Blue to Pink,6,6,0.06743125801324332
412,0r7tk1rd6,23,74,1,3643.79999995232,Experiment,4 5 8 6 1 1,5 7 1 6 3 7,25,29,38,Male,Yes,11.34,Blue to Pink,5,5,0.06743125801324332
413,0r7tk1rd6,24,70,0,5412.29999995232,Experiment,6 8 5 4 9 4,10 7 7 4 8 6,36,42,38,Male,Yes,11.34,Blue to Pink,5,5,0.06743125801324332
414,0r7tk1rd6,25,74,1,8235.29999995232,Experiment,5 10 4 4 6 8,10 9 3 7 10 4,37,43,38,Male,Yes,11.34,Blue to Pink,5,5,0.06743125801324332
415,0r7tk1rd6,26,70,1,6060.79999995232,Experiment,11 9 7 8 7 12,11 6 12 9 5 6,54,49,38,Male,Yes,11.34,Blue to Pink,5,5,0.06743125801324332
416,0r7tk1rd6,27,70,1,5855.29999995232,Experiment,8 1 3 2 5 7,3 1 5 6 2 7,26,24,38,Male,Yes,11.34,Blue to Pink,6,6,0.06743125801324332
417,0r7tk1rd6,28,70,1,3979.10000014305,Experiment,2 8 8 8 4 6,8 8 4 4 2 5,36,31,38,Male,Yes,11.34,Blue to Pink,4,4,0.06743125801324332
418,0r7tk1rd6,29,70,1,4202.19999980927,Experiment,3 6 10 10 9 6,8 4 3 10 10 8,44,43,38,Male,Yes,11.34,Blue to Pink,4,4,0.06743125801324332
419,0r7tk1rd6,30,70,1,2629.20000004768,Experiment,5 9 5 6 10 4,6 9 6 7 5 4,39,37,38,Male,Yes,11.34,Blue to Pink,5,5,0.06743125801324332
420,0r7tk1rd6,31,74,1,9025.0,Experiment,8 2 2 1 4 8,6 7 3 3 6 2,25,27,38,Male,Yes,11.34,Blue to Pink,4,4,0.06743125801324332
421,0r7tk1rd6,32,74,1,2019.5,Experiment,8 7 6 6 4 9,10 8 9 9 5 4,40,45,38,Male,Yes,11.34,Blue to Pink,5,5,0.06743125801324332
422,0r7tk1rd6,33,74,1,7675.40000009537,Experiment,4 2 8 4 3 4,5 4 7 1 4 7,25,28,38,Male,Yes,11.34,Blue to Pink,4,4,0.06743125801324332
423,0r7tk1rd6,34,74,1,3316.29999995232,Experiment,2 7 4 5 6 4,3 7 8 2 6 7,28,33,38,Male,Yes,11.34,Blue to Pink,5,5,0.06743125801324332
424,0r7tk1rd6,35,74,1,2335.90000009537,Experiment,10 11 11 11 12 5,12 12 9 10 8 10,60,61,38,Male,Yes,11.34,Blue to Pink,4,4,0.06743125801324332
425,0r7tk1rd6,36,70,1,2323.80000019073,Experiment,7 3 1 7 6 2,5 2 6 4 4 3,26,24,38,Male,Yes,11.34,Blue to Pink,5,5,0.06743125801324332
426,0r7tk1rd6,37,70,1,5980.0,Experiment,11 12 11 10 7 6,8 6 10 8 9 11,57,52,38,Male,Yes,11.34,Blue to Pink,5,5,0.06743125801324332
427,0r7tk1rd6,38,70,0,12892.5,Experiment,5 2 3 7 4 7,6 7 4 5 3 4,28,29,38,Male,Yes,11.34,Blue to Pink,5,5,0.06743125801324332
428,0r7tk1rd6,39,70,1,3788.20000004768,Experiment,5 6 12 10 11 5,11 5 7 6 8 11,49,48,38,Male,Yes,11.34,Blue to Pink,5,5,0.06743125801324332
429,0r7tk1rd6,40,70,0,5788.0,Experiment,5 8 4 7 5 10,8 5 9 8 7 3,39,40,38,Male,Yes,11.34,Blue to Pink,5,5,0.06743125801324332
430,0r7tk1rd6,41,74,1,2059.79999995232,Experiment,12 8 12 8 9 6,8 6 12 10 12 12,55,60,38,Male,Yes,11.34,Blue to Pink,4,4,0.06743125801324332
431,0r7tk1rd6,42,70,1,2747.70000004768,Experiment,10 10 7 10 4 6,5 9 9 7 4 7,47,41,38,Male,Yes,11.34,Blue to Pink,4,4,0.06743125801324332
432,0r7tk1rd6,43,70,0,4799.5,Experiment,8 7 3 7 6 5,7 8 4 7 5 6,36,37,38,Male,Yes,11.34,Blue to Pink,5,5,0.06743125801324332
433,0r7tk1rd6,44,70,0,9066.70000004768,Experiment,5 7 8 1 5 1,3 4 6 3 6 8,27,30,38,Male,Yes,11.34,Blue to Pink,4,4,0.06743125801324332
434,0r7tk1rd6,45,74,1,7692.09999990463,Experiment,5 9 6 9 4 6,3 10 3 10 9 8,39,43,38,Male,Yes,11.34,Blue to Pink,4,4,0.06743125801324332
435,0r7tk1rd6,46,70,1,4643.70000004768,Experiment,5 10 6 7 5 4,3 4 6 6 10 7,37,36,38,Male,Yes,11.34,Blue to Pink,5,5,0.06743125801324332
436,0r7tk1rd6,47,70,1,2893.0,Experiment,6 4 7 4 4 7,2 3 8 8 2 3,32,26,38,Male,Yes,11.34,Blue to Pink,3,3,0.06743125801324332
437,0r7tk1rd6,48,74,1,4668.5,Experiment,1 7 4 5 5 2,4 2 5 2 7 8,24,28,38,Male,Yes,11.34,Blue to Pink,5,5,0.06743125801324332
438,0r7tk1rd6,49,70,1,5036.5,Experiment,6 2 7 4 3 7,3 1 6 5 5 4,29,24,38,Male,Yes,11.34,Blue to Pink,5,5,0.06743125801324332
439,0r7tk1rd6,50,70,1,3243.40000009537,Experiment,9 7 10 5 8 8,10 9 6 8 9 3,47,45,38,Male,Yes,11.34,Blue to Pink,5,5,0.06743125801324332
440,0r7tk1rd6,51,74,1,6228.79999995232,Experiment,7 5 12 8 11 12,7 12 9 11 10 9,55,58,38,Male,Yes,11.34,Blue to Pink,5,5,0.06743125801324332
441,0r7tk1rd6,52,70,1,6531.0,Experiment,6 1 6 6 8 5,4 2 5 5 8 5,32,29,38,Male,Yes,11.34,Blue to Pink,4,4,0.06743125801324332
442,0r7tk1rd6,53,74,1,21497.4000000954,Experiment,10 8 8 9 9 10,12 12 5 9 9 9,54,56,38,Male,Yes,11.34,Blue to Pink,3,3,0.06743125801324332
443,0r7tk1rd6,54,74,1,3045.20000004768,Experiment,10 6 8 7 6 11,8 9 9 6 10 12,48,54,38,Male,Yes,11.34,Blue to Pink,5,5,0.06743125801324332
444,0r7tk1rd6,55,70,1,4155.29999995232,Experiment,8 6 8 9 12 12,10 7 10 11 7 6,55,51,38,Male,Yes,11.34,Blue to Pink,4,4,0.06743125801324332
445,0r7tk1rd6,56,70,1,5067.5,Experiment,6 8 7 9 9 10,9 8 5 7 10 9,49,48,38,Male,Yes,11.34,Blue to Pink,5,5,0.06743125801324332
446,0r7tk1rd6,57,74,1,12539.2000000477,Experiment,12 9 8 7 5 7,10 7 10 6 5 12,48,50,38,Male,Yes,11.34,Blue to Pink,5,5,0.06743125801324332
447,0r7tk1rd6,58,74,1,4734.29999995232,Experiment,6 1 1 5 7 7,7 3 2 5 7 7,27,31,38,Male,Yes,11.34,Blue to Pink,4,4,0.06743125801324332
448,0r7tk1rd6,59,70,1,3556.0,Experiment,8 10 8 10 12 12,11 11 11 6 8 11,60,58,38,Male,Yes,11.34,Blue to Pink,3,3,0.06743125801324332
449,0r7tk1rd6,60,70,1,2916.59999990463,Experiment,8 8 11 5 11 9,5 6 11 9 9 9,52,49,38,Male,Yes,11.34,Blue to Pink,4,4,0.06743125801324332
450,0r7tk1rd6,61,70,1,6497.40000009537,Experiment,1 8 7 8 6 1,4 2 7 7 4 3,31,27,38,Male,Yes,11.34,Blue to Pink,4,4,0.06743125801324332
451,0r7tk1rd6,62,70,1,6764.30000019073,Experiment,11 10 6 7 10 8,11 8 5 8 6 12,52,50,38,Male,Yes,11.34,Blue to Pink,5,5,0.06743125801324332
452,0r7tk1rd6,63,70,1,1684.79999995232,Experiment,10 12 8 7 10 7,11 9 9 12 5 5,54,51,38,Male,Yes,11.34,Blue to Pink,4,4,0.06743125801324332
453,0r7tk1rd6,64,70,0,8724.29999995232,Experiment,8 12 12 7 5 6,8 9 9 10 12 5,50,53,38,Male,Yes,11.34,Blue to Pink,5,5,0.06743125801324332
454,0r7tk1rd6,65,70,1,3492.40000009537,Experiment,5 4 5 8 6 1,4 2 8 3 1 8,29,26,38,Male,Yes,11.34,Blue to Pink,5,5,0.06743125801324332
455,0r7tk1rd6,66,74,1,2347.90000009537,Experiment,3 4 7 6 9 8,3 6 8 7 9 10,37,43,38,Male,Yes,11.34,Blue to Pink,6,6,0.06743125801324332
456,0r7tk1rd6,67,70,1,4170.70000004768,Experiment,4 4 8 10 10 6,5 9 7 7 4 4,42,36,38,Male,Yes,11.34,Blue to Pink,4,4,0.06743125801324332
457,0r7tk1rd6,68,70,1,3116.60000014305,Experiment,7 9 3 7 8 5,3 7 8 10 3 6,39,37,38,Male,Yes,11.34,Blue to Pink,5,5,0.06743125801324332
458,0r7tk1rd6,69,74,0,1362.90000009537,Experiment,11 5 9 12 6 12,8 6 12 7 6 10,55,49,38,Male,Yes,11.34,Blue to Pink,5,5,0.06743125801324332
459,0r7tk1rd6,70,74,1,12444.3000001907,Experiment,10 7 10 3 7 8,6 10 10 8 4 8,45,46,38,Male,Yes,11.34,Blue to Pink,4,4,0.06743125801324332
460,0r7tk1rd6,71,74,0,3347.79999995232,Experiment,4 8 6 6 4 8,4 7 7 7 7 2,36,34,38,Male,Yes,11.34,Blue to Pink,3,3,0.06743125801324332
461,0r7tk1rd6,72,74,1,2724.39999985695,Experiment,9 7 11 6 9 11,6 12 12 8 12 9,53,59,38,Male,Yes,11.34,Blue to Pink,4,4,0.06743125801324332
462,0r7tk1rd6,73,74,1,8011.09999990463,Experiment,8 5 7 5 9 7,7 8 4 8 9 7,41,43,38,Male,Yes,11.34,Blue to Pink,4,4,0.06743125801324332
463,0r7tk1rd6,74,70,1,3899.0,Experiment,10 10 10 12 8 7,6 5 11 12 12 5,57,51,38,Male,Yes,11.34,Blue to Pink,4,4,0.06743125801324332
464,0r7tk1rd6,75,70,0,2195.80000019073,Experiment,6 10 8 4 6 7,7 4 9 10 4 8,41,42,38,Male,Yes,11.34,Blue to Pink,5,5,0.06743125801324332
465,0r7tk1rd6,76,70,1,6204.70000004768,Experiment,9 7 8 8 11 10,7 6 11 11 9 8,53,52,38,Male,Yes,11.34,Blue to Pink,5,5,0.06743125801324332
466,0r7tk1rd6,77,74,1,6890.70000004768,Experiment,3 8 7 8 4 1,8 5 3 7 6 5,31,34,38,Male,Yes,11.34,Blue to Pink,5,5,0.06743125801324332
467,0r7tk1rd6,78,70,1,1836.59999990463,Experiment,5 5 8 9 6 9,10 6 5 10 3 3,42,37,38,Male,Yes,11.34,Blue to Pink,4,4,0.06743125801324332
468,0r7tk1rd6,79,70,1,6684.10000014305,Experiment,6 9 4 4 7 10,3 6 7 9 4 7,40,36,38,Male,Yes,11.34,Blue to Pink,5,5,0.06743125801324332
469,0r7tk1rd6,80,70,0,1604.60000014305,Experiment,8 9 5 5 8 4,6 6 10 7 10 4,39,43,38,Male,Yes,11.34,Blue to Pink,4,4,0.06743125801324332
470,0r7tk1rd6,81,70,1,6532.60000014305,Experiment,8 3 1 2 6 6,1 5 8 3 4 3,26,24,38,Male,Yes,11.34,Blue to Pink,5,5,0.06743125801324332
471,0r7tk1rd6,82,74,1,4068.70000004768,Experiment,10 5 7 6 9 11,9 5 6 7 11 12,48,50,38,Male,Yes,11.34,Blue to Pink,6,6,0.06743125801324332
472,0r7tk1rd6,83,70,1,2867.29999995232,Experiment,8 5 4 9 9 6,5 8 6 7 3 7,41,36,38,Male,Yes,11.34,Blue to Pink,5,5,0.06743125801324332
473,0r7tk1rd6,84,70,1,3372.90000009537,Experiment,10 3 8 6 9 9,6 4 10 9 3 9,45,41,38,Male,Yes,11.34,Blue to Pink,5,5,0.06743125801324332
474,0r7tk1rd6,85,70,0,2323.90000009537,Experiment,4 5 8 2 4 6,2 2 7 5 6 8,29,30,38,Male,Yes,11.34,Blue to Pink,5,5,0.06743125801324332
475,0r7tk1rd6,86,70,1,6507.89999985695,Experiment,10 12 8 11 5 9,9 8 11 6 10 5,55,49,38,Male,Yes,11.34,Blue to Pink,6,6,0.06743125801324332
476,0r7tk1rd6,87,74,1,6668.20000004768,Experiment,11 9 9 6 5 8,12 8 5 11 6 11,48,53,38,Male,Yes,11.34,Blue to Pink,5,5,0.06743125801324332
477,0r7tk1rd6,88,70,1,2532.59999990463,Experiment,5 7 6 3 5 1,1 5 1 8 4 6,27,25,38,Male,Yes,11.34,Blue to Pink,5,5,0.06743125801324332
478,0r7tk1rd6,89,70,1,3956.69999980927,Experiment,3 2 4 7 3 8,4 5 2 4 3 7,27,25,38,Male,Yes,11.34,Blue to Pink,5,5,0.06743125801324332
479,0r7tk1rd6,90,74,1,12876.4000000954,Experiment,4 1 5 1 6 7,2 4 8 7 5 2,24,28,38,Male,Yes,11.34,Blue to Pink,5,5,0.06743125801324332
480,0r7tk1rd6,91,74,1,3410.09999990463,Experiment,7 9 8 10 5 9,10 6 11 8 11 7,48,53,38,Male,Yes,11.34,Blue to Pink,5,5,0.06743125801324332
481,0r7tk1rd6,92,70,1,1299.09999990463,Experiment,10 7 10 7 6 11,12 12 6 5 6 8,51,49,38,Male,Yes,11.34,Blue to Pink,4,4,0.06743125801324332
482,0r7tk1rd6,93,74,1,6716.90000009537,Experiment,6 1 5 6 4 5,5 8 1 3 5 8,27,30,38,Male,Yes,11.34,Blue to Pink,4,4,0.06743125801324332
483,0r7tk1rd6,94,70,1,4883.0,Experiment,9 12 12 7 5 9,8 10 10 9 9 5,54,51,38,Male,Yes,11.34,Blue to Pink,4,4,0.06743125801324332
484,0r7tk1rd6,95,70,1,4117.0,Experiment,5 10 12 10 10 9,9 12 9 9 8 6,56,53,38,Male,Yes,11.34,Blue to Pink,4,4,0.06743125801324332
485,0r7tk1rd6,96,74,1,2205.20000004768,Experiment,7 1 8 2 1 8,6 8 3 6 4 6,27,33,38,Male,Yes,11.34,Blue to Pink,4,4,0.06743125801324332
486,0r7tk1rd6,97,74,1,1115.5,Experiment,1 8 7 7 6 7,5 4 6 8 6 8,36,37,38,Male,Yes,11.34,Blue to Pink,4,4,0.06743125801324332
487,0r7tk1rd6,98,70,1,2040.29999995232,Experiment,5 7 11 9 10 9,5 10 5 12 9 8,51,49,38,Male,Yes,11.34,Blue to Pink,5,5,0.06743125801324332
488,0r7tk1rd6,99,70,1,1699.90000009537,Experiment,7 5 6 5 10 9,10 4 3 4 9 7,42,37,38,Male,Yes,11.34,Blue to Pink,5,5,0.06743125801324332
489,0r7tk1rd6,100,74,0,9444.20000004768,Experiment,8 7 7 6 9 12,6 8 12 5 9 8,49,48,38,Male,Yes,11.34,Blue to Pink,5,5,0.06743125801324332
490,0r7tk1rd6,101,74,1,5323.79999995232,Experiment,5 4 7 9 9 6,7 6 8 9 6 5,40,41,38,Male,Yes,11.34,Blue to Pink,5,5,0.06743125801324332
491,0r7tk1rd6,102,74,1,2997.10000014305,Experiment,2 3 3 6 8 6,6 3 3 8 6 7,28,33,38,Male,Yes,11.34,Blue to Pink,4,4,0.06743125801324332
492,0r7tk1rd6,103,70,1,1676.70000004768,Experiment,6 8 4 5 2 5,3 7 2 2 6 4,30,24,38,Male,Yes,11.34,Blue to Pink,5,5,0.06743125801324332
493,0r7tk1rd6,104,74,1,1003.29999995232,Experiment,7 3 10 9 3 7,5 8 8 10 5 6,39,42,38,Male,Yes,11.34,Blue to Pink,4,4,0.06743125801324332
494,0r7tk1rd6,105,74,1,1149.10000014305,Experiment,3 10 6 9 5 10,7 10 5 9 8 7,43,46,38,Male,Yes,11.34,Blue to Pink,5,5,0.06743125801324332
495,0r7tk1rd6,106,74,1,4412.40000009537,Experiment,7 9 7 7 11 11,7 11 11 10 11 7,52,57,38,Male,Yes,11.34,Blue to Pink,3,3,0.06743125801324332
496,0r7tk1rd6,107,70,0,2034.09999990463,Experiment,11 11 8 7 6 8,11 5 12 10 12 5,51,55,38,Male,Yes,11.34,Blue to Pink,4,4,0.06743125801324332
497,0r7tk1rd6,108,74,1,2684.20000004768,Experiment,3 10 6 3 7 8,8 9 7 5 3 9,37,41,38,Male,Yes,11.34,Blue to Pink,5,5,0.06743125801324332
498,0r7tk1rd6,109,70,1,2148.09999990463,Experiment,11 8 7 6 12 7,7 6 8 9 8 11,51,49,38,Male,Yes,11.34,Blue to Pink,5,5,0.06743125801324332
499,0r7tk1rd6,110,70,1,1308.60000014305,Experiment,4 10 5 5 8 10,4 3 6 3 10 10,42,36,38,Male,Yes,11.34,Blue to Pink,4,4,0.06743125801324332
500,0r7tk1rd6,111,74,1,2331.59999990463,Experiment,1 2 5 2 8 7,3 7 8 5 3 4,25,30,38,Male,Yes,11.34,Blue to Pink,5,5,0.06743125801324332
501,0r7tk1rd6,112,74,1,1971.40000009537,Experiment,5 2 3 7 5 7,5 4 8 8 2 8,29,35,38,Male,Yes,11.34,Blue to Pink,4,4,0.06743125801324332
502,0r7tk1rd6,113,74,1,4403.89999985695,Experiment,7 1 8 7 2 4,4 7 7 6 1 8,29,33,38,Male,Yes,11.34,Blue to Pink,5,5,0.06743125801324332
503,0r7tk1rd6,114,74,0,1019.29999995232,Experiment,7 7 3 10 7 10,8 6 7 8 6 7,44,42,38,Male,Yes,11.34,Blue to Pink,3,3,0.06743125801324332
504,0r7tk1rd6,115,70,1,7635.5,Experiment,6 4 3 2 7 6,8 2 7 4 1 4,28,26,38,Male,Yes,11.34,Blue to Pink,5,5,0.06743125801324332
505,0r7tk1rd6,116,70,1,8620.40000009537,Experiment,10 8 4 3 8 5,6 5 10 5 3 7,38,36,38,Male,Yes,11.34,Blue to Pink,5,5,0.06743125801324332
506,0r7tk1rd6,117,70,1,1460.0,Experiment,6 5 7 8 4 1,2 7 5 4 1 6,31,25,38,Male,Yes,11.34,Blue to Pink,6,6,0.06743125801324332
507,0r7tk1rd6,118,74,1,1315.79999995232,Experiment,1 6 8 4 7 7,6 7 5 3 8 6,33,35,38,Male,Yes,11.34,Blue to Pink,5,5,0.06743125801324332
508,0r7tk1rd6,119,70,0,5380.10000014305,Experiment,5 5 2 2 3 7,8 8 2 4 6 2,24,30,38,Male,Yes,11.34,Blue to Pink,4,4,0.06743125801324332
509,0r7tk1rd6,120,70,1,2452.09999990463,Experiment,6 6 9 7 3 9,7 7 4 7 3 9,40,37,38,Male,Yes,11.34,Blue to Pink,4,4,0.06743125801324332
510,0r7tk1rd6,121,74,1,5321.20000004768,Experiment,7 7 3 5 3 3,7 7 3 6 3 7,28,33,38,Male,Yes,11.34,Blue to Pink,3,3,0.06743125801324332
511,0r7tk1rd6,122,70,0,3084.59999990463,Experiment,6 3 9 5 9 4,9 4 3 10 8 3,36,37,38,Male,Yes,11.34,Blue to Pink,5,5,0.06743125801324332
512,0r7tk1rd6,123,70,1,2060.0,Experiment,7 3 6 1 5 6,3 8 6 5 3 2,28,27,38,Male,Yes,11.34,Blue to Pink,5,5,0.06743125801324332
513,0r7tk1rd6,124,70,1,4819.20000004768,Experiment,7 4 2 8 7 1,7 5 1 4 5 2,29,24,38,Male,Yes,11.34,Blue to Pink,5,5,0.06743125801324332
514,0r7tk1rd6,125,70,1,2716.79999995232,Experiment,8 8 9 5 10 5,8 5 5 10 4 8,45,40,38,Male,Yes,11.34,Blue to Pink,4,4,0.06743125801324332
515,0r7tk1rd6,126,70,1,7524.30000019073,Experiment,3 8 5 9 9 4,6 6 7 8 4 5,38,36,38,Male,Yes,11.34,Blue to Pink,5,5,0.06743125801324332
516,0r7tk1rd6,127,70,1,2507.90000009537,Experiment,5 7 11 6 11 10,8 9 7 6 10 8,50,48,38,Male,Yes,11.34,Blue to Pink,5,5,0.06743125801324332
517,0r7tk1rd6,128,74,1,1556.20000004768,Experiment,5 4 10 5 4 10,8 6 9 9 6 6,38,44,38,Male,Yes,11.34,Blue to Pink,3,3,0.06743125801324332
518,0r7tk1rd6,129,74,1,1748.39999985695,Experiment,4 1 4 2 8 5,2 3 5 4 8 3,24,25,38,Male,Yes,11.34,Blue to Pink,5,5,0.06743125801324332
519,0r7tk1rd6,130,70,0,3388.30000019073,Experiment,2 3 7 1 4 7,6 1 1 8 2 7,24,25,38,Male,Yes,11.34,Blue to Pink,5,5,0.06743125801324332
520,0r7tk1rd6,131,70,1,1228.70000004768,Experiment,4 9 9 9 5 7,7 9 3 9 8 3,43,39,38,Male,Yes,11.34,Blue to Pink,4,4,0.06743125801324332
521,0r7tk1rd6,132,70,1,3031.20000004768,Experiment,10 12 7 10 11 9,10 8 5 11 11 12,59,57,38,Male,Yes,11.34,Blue to Pink,5,5,0.06743125801324332
522,0r7tk1rd6,133,70,1,1243.79999995232,Experiment,8 10 6 8 10 7,10 8 9 9 9 3,49,48,38,Male,Yes,11.34,Blue to Pink,4,4,0.06743125801324332
523,0r7tk1rd6,134,74,1,5588.69999980927,Experiment,8 8 1 4 2 1,2 8 3 8 3 6,24,30,38,Male,Yes,11.34,Blue to Pink,4,4,0.06743125801324332
524,0r7tk1rd6,135,70,0,4018.60000014305,Experiment,11 9 7 10 9 7,10 9 10 11 9 6,53,55,38,Male,Yes,11.34,Blue to Pink,4,4,0.06743125801324332
525,0r7tk1rd6,136,74,1,6447.20000004768,Experiment,9 7 9 6 11 6,12 6 12 6 10 8,48,54,38,Male,Yes,11.34,Blue to Pink,4,4,0.06743125801324332
526,0r7tk1rd6,137,74,1,1666.70000004768,Experiment,8 1 2 6 6 8,4 1 4 7 8 8,31,32,38,Male,Yes,11.34,Blue to Pink,4,4,0.06743125801324332
527,0r7tk1rd6,138,70,0,1349.0,Experiment,4 5 10 6 6 6,6 9 9 6 3 7,37,40,38,Male,Yes,11.34,Blue to Pink,4,4,0.06743125801324332
528,0r7tk1rd6,139,70,1,1044.29999995232,Experiment,6 10 8 10 8 6,9 9 6 9 4 9,48,46,38,Male,Yes,11.34,Blue to Pink,3,3,0.06743125801324332
529,0r7tk1rd6,140,74,1,3292.29999995232,Experiment,10 10 7 7 12 6,12 7 10 7 11 10,52,57,38,Male,Yes,11.34,Blue to Pink,4,4,0.06743125801324332
530,0r7tk1rd6,141,70,1,1962.20000004768,Experiment,9 7 6 11 11 11,5 5 9 10 11 11,55,51,38,Male,Yes,11.34,Blue to Pink,4,4,0.06743125801324332
531,0r7tk1rd6,142,74,1,4853.19999980927,Experiment,6 6 3 7 2 3,5 2 4 8 4 8,27,31,38,Male,Yes,11.34,Blue to Pink,4,4,0.06743125801324332
532,0r7tk1rd6,143,74,1,1420.5,Experiment,6 6 10 9 4 3,6 9 8 4 5 8,38,40,38,Male,Yes,11.34,Blue to Pink,5,5,0.06743125801324332
533,0r7tk1rd6,144,74,1,1939.5,Experiment,6 7 3 9 3 8,10 9 7 4 4 6,36,40,38,Male,Yes,11.34,Blue to Pink,5,5,0.06743125801324332
534,0r7tk1rd6,145,70,0,1212.0,Experiment,6 12 7 7 9 10,5 9 10 11 10 7,51,52,38,Male,Yes,11.34,Blue to Pink,5,5,0.06743125801324332
535,0r7tk1rd6,146,70,1,4973.19999980927,Experiment,11 8 8 8 11 10,6 12 12 7 7 6,56,50,38,Male,Yes,11.34,Blue to Pink,3,3,0.06743125801324332
536,0r7tk1rd6,147,70,0,2135.29999995232,Experiment,8 6 9 12 10 8,12 10 9 6 11 6,53,54,38,Male,Yes,11.34,Blue to Pink,5,5,0.06743125801324332
537,0r7tk1rd6,148,70,1,1116.10000014305,Experiment,4 4 7 1 5 7,5 1 5 5 2 7,28,25,38,Male,Yes,11.34,Blue to Pink,4,4,0.06743125801324332
538,0r7tk1rd6,149,70,1,2420.29999995232,Experiment,1 8 8 7 5 2,3 4 2 2 8 6,31,25,38,Male,Yes,11.34,Blue to Pink,5,5,0.06743125801324332
539,0r7tk1rd6,150,70,1,7697.80000019073,Experiment,9 11 8 8 11 5,8 8 8 6 7 12,52,49,38,Male,Yes,11.34,Blue to Pink,4,4,0.06743125801324332
540,0trrmhdwc,1,70,0,2152.40000000596,Training,12 9 7 7 1 1 10 10 12 12 1 10,3 6 11 8 8 12 12 6 9 7 11 1,37,48,22,Female ,Yes,9.9,Pink to Blue,5,8,-0.059526115461621766
541,0trrmhdwc,2,74,1,1122.69999998808,Training,11 3 7 11 6 11 1 8 7 1 4 2,9 10 6 12 1 12 7 8 2 3 11 10,49,50,22,Female ,Yes,9.9,Pink to Blue,8,10,-0.059526115461621766
542,0trrmhdwc,3,70,0,949.199999988079,Training,12 5 1 10 4 9 12 11 2 6 10 10,12 6 11 12 10 2 2 7 4 4 11 11,41,53,22,Female ,Yes,9.9,Pink to Blue,9,7,-0.059526115461621766
543,0trrmhdwc,4,70,0,1069.39999997616,Training,1 7 5 4 4 4 1 10 2 10 12 8,3 8 2 12 8 10 4 6 10 3 8 2,25,43,22,Female ,Yes,9.9,Pink to Blue,8,7,-0.059526115461621766
544,0trrmhdwc,5,74,0,958.0,Training,7 7 7 4 9 11 10 8 11 7 12 10,3 9 1 9 2 3 8 6 8 5 10 9,45,27,22,Female ,Yes,9.9,Pink to Blue,7,8,-0.059526115461621766
545,0trrmhdwc,6,70,0,842.09999999404,Training,2 1 3 1 6 3 3 10 9 3 4 2,10 5 4 6 6 11 8 6 6 8 12 11,16,42,22,Female ,Yes,9.9,Pink to Blue,7,7,-0.059526115461621766
546,0trrmhdwc,7,74,0,1698.5,Training,12 7 2 4 11 10 11 5 9 2 5 10,8 3 3 4 7 7 12 7 3 4 7 1,46,32,22,Female ,Yes,9.9,Pink to Blue,8,6,-0.059526115461621766
547,0trrmhdwc,8,70,0,1170.09999999404,Training,4 4 4 4 5 11 7 1 12 11 9 1,10 12 2 4 10 1 1 3 3 9 10 3,32,39,22,Female ,Yes,9.9,Pink to Blue,7,7,-0.059526115461621766
548,0trrmhdwc,9,70,1,770.0,Training,1 12 6 8 1 12 10 6 3 8 5 7,3 3 1 5 5 10 6 10 9 1 8 4,40,27,22,Female ,Yes,9.9,Pink to Blue,8,8,-0.059526115461621766
549,0trrmhdwc,10,70,0,1237.09999999404,Training,3 10 1 2 5 6 6 10 2 7 5 4,12 8 11 7 4 8 12 1 7 9 3 9,27,50,22,Female ,Yes,9.9,Pink to Blue,8,8,-0.059526115461621766
550,0trrmhdwc,11,74,0,806.299999982119,Training,2 9 11 1 11 9 12 1 1 12 2 12,6 4 12 7 3 3 1 8 12 5 9 10,43,35,22,Female ,Yes,9.9,Pink to Blue,5,10,-0.059526115461621766
551,0trrmhdwc,12,74,0,487.0,Training,10 1 4 2 2 12 1 5 5 5 7 5,8 12 1 1 1 5 5 11 8 2 7 9,31,28,22,Female ,Yes,9.9,Pink to Blue,7,8,-0.059526115461621766
552,0trrmhdwc,13,74,0,499.0,Training,5 5 2 5 7 12 7 3 4 10 10 5,4 1 4 9 10 2 12 11 3 7 3 12,36,30,22,Female ,Yes,9.9,Pink to Blue,7,9,-0.059526115461621766
553,0trrmhdwc,14,70,1,330.0,Training,6 1 8 8 10 9 7 12 1 4 3 2,10 7 12 1 1 9 2 6 3 2 2 7,42,40,22,Female ,Yes,9.9,Pink to Blue,10,8,-0.059526115461621766
554,0trrmhdwc,15,70,0,272.0,Training,3 7 5 4 6 5 8 6 7 9 10 5,11 4 12 6 5 8 6 9 12 5 8 6,30,46,22,Female ,Yes,9.9,Pink to Blue,8,7,-0.059526115461621766
555,0trrmhdwc,16,74,1,865.40000000596,Training,9 1 2 11 8 4 3 8 1 7 6 7,1 3 10 7 8 8 12 11 10 7 8 9,35,37,22,Female ,Yes,9.9,Pink to Blue,9,8,-0.059526115461621766
556,0trrmhdwc,17,74,1,562.899999976158,Training,12 5 8 7 2 5 1 1 2 2 5 5,11 12 12 5 2 5 10 3 9 11 12 1,39,47,22,Female ,Yes,9.9,Pink to Blue,6,8,-0.059526115461621766
557,0trrmhdwc,18,74,0,514.0,Training,6 3 4 5 9 12 10 12 10 8 3 9,5 4 2 12 5 5 6 7 3 10 2 6,39,33,22,Female ,Yes,9.9,Pink to Blue,8,8,-0.059526115461621766
558,0trrmhdwc,19,70,0,613.40000000596,Training,1 2 2 5 6 12 1 6 11 1 6 2,8 7 7 9 2 11 7 12 9 1 4 2,28,44,22,Female ,Yes,9.9,Pink to Blue,6,8,-0.059526115461621766
559,0trrmhdwc,20,74,1,459.399999976158,Training,5 1 3 12 2 1 6 3 8 7 3 10,11 11 4 1 3 4 6 11 6 6 3 4,24,34,22,Female ,Yes,9.9,Pink to Blue,9,5,-0.059526115461621766
560,0trrmhdwc,21,70,1,778.0,Training,7 12 12 6 8 9 8 10 6 10 6 6,9 5 8 8 1 9 8 12 6 3 7 6,54,40,22,Female ,Yes,9.9,Pink to Blue,6,8,-0.059526115461621766
561,0trrmhdwc,22,74,1,1022.20000001788,Training,7 3 6 11 4 1 10 11 7 12 7 12,5 11 12 12 8 7 1 3 2 10 2 2,32,55,22,Female ,Yes,9.9,Pink to Blue,8,9,-0.059526115461621766
562,0trrmhdwc,23,74,0,1133.0,Training,7 12 5 3 12 10 9 5 3 7 6 2,5 10 2 3 1 7 8 2 10 1 9 8,49,28,22,Female ,Yes,9.9,Pink to Blue,8,8,-0.059526115461621766
563,0trrmhdwc,24,74,0,894.899999976158,Training,10 10 12 3 12 10 11 12 8 9 10 4,8 7 5 4 3 12 5 4 12 9 11 1,57,39,22,Female ,Yes,9.9,Pink to Blue,7,9,-0.059526115461621766
564,0trrmhdwc,25,70,1,1534.89999997616,Training,10 3 3 1 8 8 2 3 5 5 1 3,2 4 2 3 5 10 2 1 8 9 12 2,33,26,22,Female ,Yes,9.9,Pink to Blue,6,9,-0.059526115461621766
565,0trrmhdwc,26,74,1,1211.59999999404,Training,1 6 6 7 4 11 6 6 8 4 11 4,10 9 7 10 10 10 3 12 10 5 6 7,35,56,22,Female ,Yes,9.9,Pink to Blue,6,7,-0.059526115461621766
566,0trrmhdwc,27,74,1,856.199999988079,Training,8 1 5 10 4 3 3 7 2 11 12 1,3 8 8 5 9 3 9 11 3 7 11 12,31,36,22,Female ,Yes,9.9,Pink to Blue,10,7,-0.059526115461621766
567,0trrmhdwc,28,70,1,1038.40000000596,Training,1 6 9 12 12 12 4 2 2 7 3 5,11 6 2 2 4 6 11 12 2 7 8 12,52,31,22,Female ,Yes,9.9,Pink to Blue,9,7,-0.059526115461621766
568,0trrmhdwc,29,70,0,2093.40000000596,Training,4 3 3 9 5 5 12 5 8 10 3 9,6 11 12 7 1 3 12 6 10 1 5 7,29,40,22,Female ,Yes,9.9,Pink to Blue,7,8,-0.059526115461621766
569,0trrmhdwc,30,70,1,905.0,Training,7 5 6 12 10 11 7 6 7 8 6 8,4 1 2 3 9 10 11 8 12 11 5 3,51,29,22,Female ,Yes,9.9,Pink to Blue,7,10,-0.059526115461621766
570,0trrmhdwc,1,70,1,4195.09999999404,Training,12 9 7 7 1 1 10 10 12 12 1 10,3 6 11 8 8 12 12 6 9 7 11 1,55,46,22,Female ,Yes,9.9,Pink to Blue,5,8,-0.059526115461621766
571,0trrmhdwc,2,74,1,1575.39999997616,Training,11 3 7 11 6 11 1 8 7 1 4 2,9 10 6 12 1 12 7 8 2 3 11 10,23,41,22,Female ,Yes,9.9,Pink to Blue,8,10,-0.059526115461621766
572,0trrmhdwc,3,70,1,897.59999999404,Training,12 5 1 10 4 9 12 11 2 6 10 10,12 6 11 12 10 2 2 7 4 4 11 11,51,39,22,Female ,Yes,9.9,Pink to Blue,9,7,-0.059526115461621766
573,0trrmhdwc,4,70,1,719.5,Training,1 7 5 4 4 4 1 10 2 10 12 8,3 8 2 12 8 10 4 6 10 3 8 2,43,33,22,Female ,Yes,9.9,Pink to Blue,8,7,-0.059526115461621766
574,0trrmhdwc,5,70,1,720.300000011921,Training,7 7 7 4 9 11 10 8 11 7 12 10,3 9 1 9 2 3 8 6 8 5 10 9,58,46,22,Female ,Yes,9.9,Pink to Blue,7,8,-0.059526115461621766
575,0trrmhdwc,6,74,1,656.09999999404,Training,2 1 3 1 6 3 3 10 9 3 4 2,10 5 4 6 6 11 8 6 6 8 12 11,31,51,22,Female ,Yes,9.9,Pink to Blue,7,7,-0.059526115461621766
576,0trrmhdwc,7,74,0,927.699999988079,Training,12 7 2 4 11 10 11 5 9 2 5 10,8 3 3 4 7 7 12 7 3 4 7 1,42,34,22,Female ,Yes,9.9,Pink to Blue,8,6,-0.059526115461621766
577,0trrmhdwc,8,70,1,1566.29999998212,Training,4 4 4 4 5 11 7 1 12 11 9 1,10 12 2 4 10 1 1 3 3 9 10 3,41,29,22,Female ,Yes,9.9,Pink to Blue,7,7,-0.059526115461621766
578,0trrmhdwc,9,74,0,1088.0,Training,1 12 6 8 1 12 10 6 3 8 5 7,3 3 1 5 5 10 6 10 9 1 8 4,39,38,22,Female ,Yes,9.9,Pink to Blue,8,8,-0.059526115461621766
579,0trrmhdwc,10,70,0,1459.89999997616,Training,3 10 1 2 5 6 6 10 2 7 5 4,12 8 11 7 4 8 12 1 7 9 3 9,34,41,22,Female ,Yes,9.9,Pink to Blue,8,8,-0.059526115461621766
580,0trrmhdwc,11,74,1,1264.19999998808,Training,2 9 11 1 11 9 12 1 1 12 2 12,6 4 12 7 3 3 1 8 12 5 9 10,40,45,22,Female ,Yes,9.9,Pink to Blue,5,10,-0.059526115461621766
581,0trrmhdwc,12,74,1,1858.20000001788,Training,10 1 4 2 2 12 1 5 5 5 7 5,8 12 1 1 1 5 5 11 8 2 7 9,28,42,22,Female ,Yes,9.9,Pink to Blue,7,8,-0.059526115461621766
582,0trrmhdwc,13,70,0,1615.0,Training,5 5 2 5 7 12 7 3 4 10 10 5,4 1 4 9 10 2 12 11 3 7 3 12,39,48,22,Female ,Yes,9.9,Pink to Blue,7,9,-0.059526115461621766
583,0trrmhdwc,14,70,1,1536.09999999404,Training,6 1 8 8 10 9 7 12 1 4 3 2,10 7 12 1 1 9 2 6 3 2 2 7,29,22,22,Female ,Yes,9.9,Pink to Blue,10,8,-0.059526115461621766
584,0trrmhdwc,15,70,0,910.5,Training,3 7 5 4 6 5 8 6 7 9 10 5,11 4 12 6 5 8 6 9 12 5 8 6,45,46,22,Female ,Yes,9.9,Pink to Blue,8,7,-0.059526115461621766
585,0trrmhdwc,16,74,1,2623.30000001192,Training,9 1 2 11 8 4 3 8 1 7 6 7,1 3 10 7 8 8 12 11 10 7 8 9,32,57,22,Female ,Yes,9.9,Pink to Blue,9,8,-0.059526115461621766
586,0trrmhdwc,17,74,1,968.699999988079,Training,12 5 8 7 2 5 1 1 2 2 5 5,11 12 12 5 2 5 10 3 9 11 12 1,16,46,22,Female ,Yes,9.9,Pink to Blue,6,8,-0.059526115461621766
587,0trrmhdwc,18,70,1,991.799999982119,Training,6 3 4 5 9 12 10 12 10 8 3 9,5 4 2 12 5 5 6 7 3 10 2 6,52,34,22,Female ,Yes,9.9,Pink to Blue,8,8,-0.059526115461621766
588,0trrmhdwc,19,74,1,734.40000000596,Training,1 2 2 5 6 12 1 6 11 1 6 2,8 7 7 9 2 11 7 12 9 1 4 2,27,35,22,Female ,Yes,9.9,Pink to Blue,6,8,-0.059526115461621766
589,0trrmhdwc,20,74,0,1778.0,Training,5 1 3 12 2 1 6 3 8 7 3 10,11 11 4 1 3 4 6 11 6 6 3 4,37,36,22,Female ,Yes,9.9,Pink to Blue,9,5,-0.059526115461621766
590,0trrmhdwc,21,70,1,1134.5,Training,7 12 12 6 8 9 8 10 6 10 6 6,9 5 8 8 1 9 8 12 6 3 7 6,46,42,22,Female ,Yes,9.9,Pink to Blue,6,8,-0.059526115461621766
591,0trrmhdwc,22,70,1,741.5,Training,7 3 6 11 4 1 10 11 7 12 7 12,5 11 12 12 8 7 1 3 2 10 2 2,59,20,22,Female ,Yes,9.9,Pink to Blue,8,9,-0.059526115461621766
592,0trrmhdwc,23,74,1,822.800000011921,Training,7 12 5 3 12 10 9 5 3 7 6 2,5 10 2 3 1 7 8 2 10 1 9 8,32,38,22,Female ,Yes,9.9,Pink to Blue,8,8,-0.059526115461621766
593,0trrmhdwc,24,70,1,900.40000000596,Training,10 10 12 3 12 10 11 12 8 9 10 4,8 7 5 4 3 12 5 4 12 9 11 1,54,42,22,Female ,Yes,9.9,Pink to Blue,7,9,-0.059526115461621766
594,0trrmhdwc,25,74,1,953.59999999404,Training,10 3 3 1 8 8 2 3 5 5 1 3,2 4 2 3 5 10 2 1 8 9 12 2,19,34,22,Female ,Yes,9.9,Pink to Blue,6,9,-0.059526115461621766
595,0trrmhdwc,26,70,0,1113.5,Training,1 6 6 7 4 11 6 6 8 4 11 4,10 9 7 10 10 10 3 12 10 5 6 7,39,43,22,Female ,Yes,9.9,Pink to Blue,6,7,-0.059526115461621766
596,0trrmhdwc,27,70,0,1038.09999999404,Training,8 1 5 10 4 3 3 7 2 11 12 1,3 8 8 5 9 3 9 11 3 7 11 12,36,53,22,Female ,Yes,9.9,Pink to Blue,10,7,-0.059526115461621766
597,0trrmhdwc,28,74,1,1148.19999998808,Training,1 6 9 12 12 12 4 2 2 7 3 5,11 6 2 2 4 6 11 12 2 7 8 12,23,52,22,Female ,Yes,9.9,Pink to Blue,9,7,-0.059526115461621766
598,0trrmhdwc,29,74,0,1189.5,Training,4 3 3 9 5 5 12 5 8 10 3 9,6 11 12 7 1 3 12 6 10 1 5 7,47,41,22,Female ,Yes,9.9,Pink to Blue,7,8,-0.059526115461621766
599,0trrmhdwc,30,70,0,1343.70000001788,Training,7 5 6 12 10 11 7 6 7 8 6 8,4 1 2 3 9 10 11 8 12 11 5 3,42,50,22,Female ,Yes,9.9,Pink to Blue,7,10,-0.059526115461621766
600,70,0trrmhdwc,70,1,3851.60000002384,Training,1 4 5 6 7 8 9 10 12 13 14 17 18 19 20 24 29,9.90 9.90 9.90 9.90 9.90 9.90 9.90 9.90 9.90 9.90 9.90 9.90 9.90 9.90 9.90 9.90 9.90,43,36,22,Female ,Yes,9.9,Pink to Blue,17,1,-1000.0
601,74,0trrmhdwc,74,1,1927.5,Training,2 3 11 15 16 21 22 23 25 26 27 28 30,9.90 9.90 9.90 9.90 9.90 9.90 9.90 9.90 9.90 9.90 9.90 9.90 9.90,39,43,22,Female ,Yes,9.9,Pink to Blue,13,1,-1000.0
602,74,0trrmhdwc,74,1,1695.5,Training,2 3 11 15 16 21 22 23 25 26 27 28 30,9.90 9.90 9.90 9.90 9.90 9.90 9.90 9.90 9.90 9.90 9.90 9.90 9.90,29,50,22,Female ,Yes,9.9,Pink to Blue,13,1,-1000.0
603,70,0trrmhdwc,70,0,1370.0,Training,1 4 5 6 7 8 9 10 12 13 14 17 18 19 20 24 29,9.90 9.90 9.90 9.90 9.90 9.90 9.90 9.90 9.90 9.90 9.90 9.90 9.90 9.90 9.90 9.90 9.90,35,38,22,Female ,Yes,9.9,Pink to Blue,17,1,-1000.0
604,70,0trrmhdwc,70,0,5349.09999999404,Training,1 4 5 6 7 8 9 10 12 13 14 17 18 19 20 24 29,9.90 9.90 9.90 9.90 9.90 9.90 9.90 9.90 9.90 9.90 9.90 9.90 9.90 9.90 9.90 9.90 9.90,32,36,22,Female ,Yes,9.9,Pink to Blue,17,1,-1000.0
605,70,0trrmhdwc,70,0,974.09999999404,Training,1 4 5 6 7 8 9 10 12 13 14 17 18 19 20 24 29,9.90 9.90 9.90 9.90 9.90 9.90 9.90 9.90 9.90 9.90 9.90 9.90 9.90 9.90 9.90 9.90 9.90,48,54,22,Female ,Yes,9.9,Pink to Blue,17,1,-1000.0
606,70,0trrmhdwc,70,1,1262.20000001788,Training,1 4 5 6 7 8 9 10 12 13 14 17 18 19 20 24 29,9.90 9.90 9.90 9.90 9.90 9.90 9.90 9.90 9.90 9.90 9.90 9.90 9.90 9.90 9.90 9.90 9.90,39,25,22,Female ,Yes,9.9,Pink to Blue,17,1,-1000.0
607,70,0trrmhdwc,70,1,3025.79999998212,Training,1 4 5 6 7 8 9 10 12 13 14 17 18 19 20 24 29,9.90 9.90 9.90 9.90 9.90 9.90 9.90 9.90 9.90 9.90 9.90 9.90 9.90 9.90 9.90 9.90 9.90,41,39,22,Female ,Yes,9.9,Pink to Blue,17,1,-1000.0
608,70,0trrmhdwc,70,1,4954.69999998808,Training,1 4 5 6 7 8 9 10 12 13 14 17 18 19 20 24 29,9.90 9.90 9.90 9.90 9.90 9.90 9.90 9.90 9.90 9.90 9.90 9.90 9.90 9.90 9.90 9.90 9.90,50,30,22,Female ,Yes,9.9,Pink to Blue,17,1,-1000.0
609,70,0trrmhdwc,70,1,939.40000000596,Training,1 4 5 6 7 8 9 10 12 13 14 17 18 19 20 24 29,9.90 9.90 9.90 9.90 9.90 9.90 9.90 9.90 9.90 9.90 9.90 9.90 9.90 9.90 9.90 9.90 9.90,43,31,22,Female ,Yes,9.9,Pink to Blue,17,1,-1000.0
610,74,0trrmhdwc,74,0,2124.90000000596,Training,2 3 11 15 16 21 22 23 25 26 27 28 30,9.90 9.90 9.90 9.90 9.90 9.90 9.90 9.90 9.90 9.90 9.90 9.90 9.90,41,34,22,Female ,Yes,9.9,Pink to Blue,13,1,-1000.0
611,70,0trrmhdwc,70,1,1985.59999999404,Training,1 4 5 6 7 8 9 10 12 13 14 17 18 19 20 24 29,9.90 9.90 9.90 9.90 9.90 9.90 9.90 9.90 9.90 9.90 9.90 9.90 9.90 9.90 9.90 9.90 9.90,44,31,22,Female ,Yes,9.9,Pink to Blue,17,1,-1000.0
612,70,0trrmhdwc,70,1,3724.5,Training,1 4 5 6 7 8 9 10 12 13 14 17 18 19 20 24 29,9.90 9.90 9.90 9.90 9.90 9.90 9.90 9.90 9.90 9.90 9.90 9.90 9.90 9.90 9.90 9.90 9.90,37,35,22,Female ,Yes,9.9,Pink to Blue,17,1,-1000.0
613,70,0trrmhdwc,70,1,1943.0,Training,1 4 5 6 7 8 9 10 12 13 14 17 18 19 20 24 29,9.90 9.90 9.90 9.90 9.90 9.90 9.90 9.90 9.90 9.90 9.90 9.90 9.90 9.90 9.90 9.90 9.90,34,22,22,Female ,Yes,9.9,Pink to Blue,17,1,-1000.0
614,74,0trrmhdwc,74,1,1904.89999997616,Training,2 3 11 15 16 21 22 23 25 26 27 28 30,9.90 9.90 9.90 9.90 9.90 9.90 9.90 9.90 9.90 9.90 9.90 9.90 9.90,30,53,22,Female ,Yes,9.9,Pink to Blue,13,1,-1000.0
615,74,0trrmhdwc,74,1,3257.29999998212,Training,2 3 11 15 16 21 22 23 25 26 27 28 30,9.90 9.90 9.90 9.90 9.90 9.90 9.90 9.90 9.90 9.90 9.90 9.90 9.90,42,46,22,Female ,Yes,9.9,Pink to Blue,13,1,-1000.0
616,70,0trrmhdwc,70,1,1831.40000000596,Training,1 4 5 6 7 8 9 10 12 13 14 17 18 19 20 24 29,9.90 9.90 9.90 9.90 9.90 9.90 9.90 9.90 9.90 9.90 9.90 9.90 9.90 9.90 9.90 9.90 9.90,56,46,22,Female ,Yes,9.9,Pink to Blue,17,1,-1000.0
617,70,0trrmhdwc,70,1,975.200000017881,Training,1 4 5 6 7 8 9 10 12 13 14 17 18 19 20 24 29,9.90 9.90 9.90 9.90 9.90 9.90 9.90 9.90 9.90 9.90 9.90 9.90 9.90 9.90 9.90 9.90 9.90,56,35,22,Female ,Yes,9.9,Pink to Blue,17,1,-1000.0
618,70,0trrmhdwc,70,1,1616.70000001788,Training,1 4 5 6 7 8 9 10 12 13 14 17 18 19 20 24 29,9.90 9.90 9.90 9.90 9.90 9.90 9.90 9.90 9.90 9.90 9.90 9.90 9.90 9.90 9.90 9.90 9.90,49,40,22,Female ,Yes,9.9,Pink to Blue,17,1,-1000.0
619,70,0trrmhdwc,70,1,709.399999976158,Training,1 4 5 6 7 8 9 10 12 13 14 17 18 19 20 24 29,9.90 9.90 9.90 9.90 9.90 9.90 9.90 9.90 9.90 9.90 9.90 9.90 9.90 9.90 9.90 9.90 9.90,54,44,22,Female ,Yes,9.9,Pink to Blue,17,1,-1000.0
620,74,0trrmhdwc,74,1,10182.900000006,Training,2 3 11 15 16 21 22 23 25 26 27 28 30,9.90 9.90 9.90 9.90 9.90 9.90 9.90 9.90 9.90 9.90 9.90 9.90 9.90,29,33,22,Female ,Yes,9.9,Pink to Blue,13,1,-1000.0
621,74,0trrmhdwc,74,1,1244.19999998808,Training,2 3 11 15 16 21 22 23 25 26 27 28 30,9.90 9.90 9.90 9.90 9.90 9.90 9.90 9.90 9.90 9.90 9.90 9.90 9.90,26,41,22,Female ,Yes,9.9,Pink to Blue,13,1,-1000.0
622,74,0trrmhdwc,74,1,2324.5,Training,2 3 11 15 16 21 22 23 25 26 27 28 30,9.90 9.90 9.90 9.90 9.90 9.90 9.90 9.90 9.90 9.90 9.90 9.90 9.90,43,50,22,Female ,Yes,9.9,Pink to Blue,13,1,-1000.0
623,70,0trrmhdwc,70,0,1649.0,Training,1 4 5 6 7 8 9 10 12 13 14 17 18 19 20 24 29,9.90 9.90 9.90 9.90 9.90 9.90 9.90 9.90 9.90 9.90 9.90 9.90 9.90 9.90 9.90 9.90 9.90,53,56,22,Female ,Yes,9.9,Pink to Blue,17,1,-1000.0
624,74,0trrmhdwc,74,0,2402.40000000596,Training,2 3 11 15 16 21 22 23 25 26 27 28 30,9.90 9.90 9.90 9.90 9.90 9.90 9.90 9.90 9.90 9.90 9.90 9.90 9.90,49,44,22,Female ,Yes,9.9,Pink to Blue,13,1,-1000.0
625,74,0trrmhdwc,74,1,2486.40000000596,Training,2 3 11 15 16 21 22 23 25 26 27 28 30,9.90 9.90 9.90 9.90 9.90 9.90 9.90 9.90 9.90 9.90 9.90 9.90 9.90,26,43,22,Female ,Yes,9.9,Pink to Blue,13,1,-1000.0
626,74,0trrmhdwc,74,1,2239.29999998212,Training,2 3 11 15 16 21 22 23 25 26 27 28 30,9.90 9.90 9.90 9.90 9.90 9.90 9.90 9.90 9.90 9.90 9.90 9.90 9.90,31,33,22,Female ,Yes,9.9,Pink to Blue,13,1,-1000.0
627,74,0trrmhdwc,74,1,1093.0,Training,2 3 11 15 16 21 22 23 25 26 27 28 30,9.90 9.90 9.90 9.90 9.90 9.90 9.90 9.90 9.90 9.90 9.90 9.90 9.90,25,45,22,Female ,Yes,9.9,Pink to Blue,13,1,-1000.0
628,70,0trrmhdwc,70,1,1635.59999999404,Training,1 4 5 6 7 8 9 10 12 13 14 17 18 19 20 24 29,9.90 9.90 9.90 9.90 9.90 9.90 9.90 9.90 9.90 9.90 9.90 9.90 9.90 9.90 9.90 9.90 9.90,40,32,22,Female ,Yes,9.9,Pink to Blue,17,1,-1000.0
629,74,0trrmhdwc,74,1,2971.79999998212,Training,2 3 11 15 16 21 22 23 25 26 27 28 30,9.90 9.90 9.90 9.90 9.90 9.90 9.90 9.90 9.90 9.90 9.90 9.90 9.90,43,54,22,Female ,Yes,9.9,Pink to Blue,13,1,-1000.0
630,0trrmhdwc,1,70,1,4293.19999998808,Experiment,6 9 11 10 12 6,9 12 8 8 6 10,54,53,22,Female ,Yes,9.9,Pink to Blue,5,5,-0.059526115461621766
631,0trrmhdwc,2,74,1,6278.69999998808,Experiment,7 3 4 1 2 7,7 8 1 2 6 1,24,25,22,Female ,Yes,9.9,Pink to Blue,5,5,-0.059526115461621766
632,0trrmhdwc,3,70,1,5038.30000001192,Experiment,10 6 10 6 4 7,8 5 4 8 5 9,43,39,22,Female ,Yes,9.9,Pink to Blue,4,4,-0.059526115461621766
633,0trrmhdwc,4,74,1,918.09999999404,Experiment,5 4 6 5 6 4,5 5 5 8 1 8,30,32,22,Female ,Yes,9.9,Pink to Blue,3,3,-0.059526115461621766
634,0trrmhdwc,5,70,1,6095.0,Experiment,7 5 3 6 6 8,7 1 4 6 8 7,35,33,22,Female ,Yes,9.9,Pink to Blue,5,5,-0.059526115461621766
635,0trrmhdwc,6,74,1,1396.90000000596,Experiment,12 5 12 8 5 7,7 10 11 8 7 11,49,54,22,Female ,Yes,9.9,Pink to Blue,4,4,-0.059526115461621766
636,0trrmhdwc,7,74,0,3523.59999999404,Experiment,6 10 4 8 10 8,7 8 7 10 3 10,46,45,22,Female ,Yes,9.9,Pink to Blue,4,4,-0.059526115461621766
637,0trrmhdwc,8,70,1,3612.59999999404,Experiment,11 10 7 12 7 10,7 12 10 6 7 10,57,52,22,Female ,Yes,9.9,Pink to Blue,4,4,-0.059526115461621766
638,0trrmhdwc,9,70,1,2424.80000001192,Experiment,7 3 7 5 2 7,1 1 5 7 6 7,31,27,22,Female ,Yes,9.9,Pink to Blue,4,4,-0.059526115461621766
639,0trrmhdwc,10,70,1,2631.69999998808,Experiment,1 8 5 2 3 7,7 2 1 3 6 5,26,24,22,Female ,Yes,9.9,Pink to Blue,6,6,-0.059526115461621766
640,0trrmhdwc,11,74,0,1405.70000001788,Experiment,6 1 3 7 6 5,8 3 2 6 3 5,28,27,22,Female ,Yes,9.9,Pink to Blue,5,5,-0.059526115461621766
641,0trrmhdwc,12,70,1,3411.80000001192,Experiment,7 4 8 2 5 2,7 4 2 1 5 5,28,24,22,Female ,Yes,9.9,Pink to Blue,5,5,-0.059526115461621766
642,0trrmhdwc,13,74,0,1546.69999998808,Experiment,11 6 8 9 12 6,9 6 8 9 5 11,52,48,22,Female ,Yes,9.9,Pink to Blue,5,5,-0.059526115461621766
643,0trrmhdwc,14,74,1,2035.40000000596,Experiment,4 7 5 6 1 1,8 4 5 7 2 2,24,28,22,Female ,Yes,9.9,Pink to Blue,5,5,-0.059526115461621766
644,0trrmhdwc,15,70,1,2575.5,Experiment,5 10 11 7 9 10,7 7 10 9 12 6,52,51,22,Female ,Yes,9.9,Pink to Blue,5,5,-0.059526115461621766
645,0trrmhdwc,16,74,1,2471.79999998212,Experiment,11 11 9 7 9 6,9 12 12 12 6 8,53,59,22,Female ,Yes,9.9,Pink to Blue,4,4,-0.059526115461621766
646,0trrmhdwc,17,70,1,2656.59999999404,Experiment,12 5 9 8 11 10,5 8 10 9 6 11,55,49,22,Female ,Yes,9.9,Pink to Blue,6,6,-0.059526115461621766
647,0trrmhdwc,18,70,0,5301.59999999404,Experiment,1 8 4 2 5 4,2 3 3 5 8 4,24,25,22,Female ,Yes,9.9,Pink to Blue,5,5,-0.059526115461621766
648,0trrmhdwc,19,74,1,3413.19999998808,Experiment,7 5 8 3 9 4,7 10 9 4 3 5,36,38,22,Female ,Yes,9.9,Pink to Blue,6,6,-0.059526115461621766
649,0trrmhdwc,20,74,1,2568.40000000596,Experiment,7 1 5 2 4 5,8 2 7 7 4 1,24,29,22,Female ,Yes,9.9,Pink to Blue,5,5,-0.059526115461621766
650,0trrmhdwc,21,74,0,1864.30000001192,Experiment,7 8 4 10 6 7,5 4 8 6 4 9,42,36,22,Female ,Yes,9.9,Pink to Blue,5,5,-0.059526115461621766
651,0trrmhdwc,22,70,1,4471.09999999404,Experiment,8 4 9 5 8 5,3 10 4 4 6 10,39,37,22,Female ,Yes,9.9,Pink to Blue,4,4,-0.059526115461621766
652,0trrmhdwc,23,74,1,2839.5,Experiment,9 9 9 6 4 9,6 8 10 6 10 8,46,48,22,Female ,Yes,9.9,Pink to Blue,3,3,-0.059526115461621766
653,0trrmhdwc,24,70,1,6886.19999998808,Experiment,12 5 12 6 11 9,8 6 7 12 6 10,55,49,22,Female ,Yes,9.9,Pink to Blue,5,5,-0.059526115461621766
654,0trrmhdwc,25,70,1,3806.79999998212,Experiment,7 8 3 6 5 5,1 3 8 8 7 4,34,31,22,Female ,Yes,9.9,Pink to Blue,5,5,-0.059526115461621766
655,0trrmhdwc,26,74,1,2907.40000000596,Experiment,8 11 7 8 6 11,12 12 5 11 5 10,51,55,22,Female ,Yes,9.9,Pink to Blue,4,4,-0.059526115461621766
656,0trrmhdwc,27,74,1,1664.39999997616,Experiment,2 8 8 3 3 2,7 6 4 7 4 4,26,32,22,Female ,Yes,9.9,Pink to Blue,3,3,-0.059526115461621766
657,0trrmhdwc,28,70,1,3019.39999997616,Experiment,6 10 3 8 9 9,6 3 9 9 4 10,45,41,22,Female ,Yes,9.9,Pink to Blue,5,5,-0.059526115461621766
658,0trrmhdwc,29,70,1,4018.70000001788,Experiment,4 7 10 6 10 10,4 5 7 7 9 9,47,41,22,Female ,Yes,9.9,Pink to Blue,4,4,-0.059526115461621766
659,0trrmhdwc,30,70,1,4527.09999999404,Experiment,8 11 11 9 5 8,9 9 11 6 5 9,52,49,22,Female ,Yes,9.9,Pink to Blue,4,4,-0.059526115461621766
660,0trrmhdwc,31,70,1,4471.90000000596,Experiment,6 12 10 8 10 12,12 5 10 9 12 9,58,57,22,Female ,Yes,9.9,Pink to Blue,4,4,-0.059526115461621766
661,0trrmhdwc,32,74,1,3089.30000001192,Experiment,4 6 5 9 9 7,8 6 5 6 7 9,40,41,22,Female ,Yes,9.9,Pink to Blue,5,5,-0.059526115461621766
662,0trrmhdwc,33,70,1,2210.20000001788,Experiment,5 6 2 5 4 8,2 6 3 7 2 4,30,24,22,Female ,Yes,9.9,Pink to Blue,5,5,-0.059526115461621766
663,0trrmhdwc,34,74,1,5485.09999999404,Experiment,3 6 5 4 1 5,7 2 6 7 3 4,24,29,22,Female ,Yes,9.9,Pink to Blue,5,5,-0.059526115461621766
664,0trrmhdwc,35,74,0,1807.0,Experiment,5 7 11 9 10 11,9 5 5 8 12 10,53,49,22,Female ,Yes,9.9,Pink to Blue,5,5,-0.059526115461621766
665,0trrmhdwc,36,74,1,1439.0,Experiment,3 5 7 5 6 3,6 2 6 7 5 5,29,31,22,Female ,Yes,9.9,Pink to Blue,4,4,-0.059526115461621766
666,0trrmhdwc,37,70,1,3034.90000000596,Experiment,6 4 6 4 8 8,4 7 7 2 7 7,36,34,22,Female ,Yes,9.9,Pink to Blue,3,3,-0.059526115461621766
667,0trrmhdwc,38,70,1,3653.09999999404,Experiment,8 3 3 2 8 6,1 4 1 8 2 8,30,24,22,Female ,Yes,9.9,Pink to Blue,4,4,-0.059526115461621766
668,0trrmhdwc,39,70,0,7834.0,Experiment,9 6 11 9 7 6,6 12 10 8 6 12,48,54,22,Female ,Yes,9.9,Pink to Blue,4,4,-0.059526115461621766
669,0trrmhdwc,40,74,1,3220.5,Experiment,6 6 10 6 5 4,6 9 7 3 9 6,37,40,22,Female ,Yes,9.9,Pink to Blue,4,4,-0.059526115461621766
670,0trrmhdwc,41,74,1,1793.0,Experiment,5 6 3 10 10 3,9 8 5 9 6 5,37,42,22,Female ,Yes,9.9,Pink to Blue,4,4,-0.059526115461621766
671,0trrmhdwc,42,74,1,4709.29999998212,Experiment,4 7 4 8 1 2,4 6 2 3 6 7,26,28,22,Female ,Yes,9.9,Pink to Blue,5,5,-0.059526115461621766
672,0trrmhdwc,43,74,1,1474.59999999404,Experiment,6 12 5 8 6 12,6 10 7 11 10 7,49,51,22,Female ,Yes,9.9,Pink to Blue,4,4,-0.059526115461621766
673,0trrmhdwc,44,74,1,3714.0,Experiment,1 5 5 6 4 6,5 3 5 1 8 8,27,30,22,Female ,Yes,9.9,Pink to Blue,4,4,-0.059526115461621766
674,0trrmhdwc,45,74,0,4754.40000000596,Experiment,9 8 5 10 4 9,9 6 8 4 7 6,45,40,22,Female ,Yes,9.9,Pink to Blue,5,5,-0.059526115461621766
675,0trrmhdwc,46,70,0,7898.20000001788,Experiment,6 6 7 4 8 10,4 9 7 4 10 8,41,42,22,Female ,Yes,9.9,Pink to Blue,5,5,-0.059526115461621766
676,0trrmhdwc,47,70,1,5044.09999999404,Experiment,10 7 8 5 9 7,10 3 10 6 9 5,46,43,22,Female ,Yes,9.9,Pink to Blue,5,5,-0.059526115461621766
677,0trrmhdwc,48,70,1,7218.19999998808,Experiment,4 7 6 7 8 1,2 4 8 7 1 7,33,29,22,Female ,Yes,9.9,Pink to Blue,5,5,-0.059526115461621766
678,0trrmhdwc,49,74,0,1077.5,Experiment,7 10 12 6 5 10,7 12 7 8 9 5,50,48,22,Female ,Yes,9.9,Pink to Blue,5,5,-0.059526115461621766
679,0trrmhdwc,50,74,1,10277.5,Experiment,1 5 3 3 4 8,6 8 2 3 1 6,24,26,22,Female ,Yes,9.9,Pink to Blue,5,5,-0.059526115461621766
680,0trrmhdwc,51,70,1,2455.59999999404,Experiment,6 7 3 6 2 3,8 8 2 4 1 2,27,25,22,Female ,Yes,9.9,Pink to Blue,4,4,-0.059526115461621766
681,0trrmhdwc,52,74,1,6189.0,Experiment,2 7 4 4 5 6,3 7 2 6 8 7,28,33,22,Female ,Yes,9.9,Pink to Blue,5,5,-0.059526115461621766
682,0trrmhdwc,53,74,1,1503.09999999404,Experiment,6 5 4 10 10 3,3 7 6 8 10 7,38,41,22,Female ,Yes,9.9,Pink to Blue,5,5,-0.059526115461621766
683,0trrmhdwc,54,70,1,1207.59999999404,Experiment,9 7 7 6 12 8,8 8 6 5 9 12,49,48,22,Female ,Yes,9.9,Pink to Blue,5,5,-0.059526115461621766
684,0trrmhdwc,55,70,1,1866.30000001192,Experiment,8 10 12 7 10 10,12 6 12 11 5 5,57,51,22,Female ,Yes,9.9,Pink to Blue,4,4,-0.059526115461621766
685,0trrmhdwc,56,70,1,1914.19999998808,Experiment,3 9 8 4 3 10,9 9 5 3 6 4,37,36,22,Female ,Yes,9.9,Pink to Blue,5,5,-0.059526115461621766
686,0trrmhdwc,57,70,0,1458.60000002384,Experiment,12 8 7 8 6 8,8 11 8 11 5 9,49,52,22,Female ,Yes,9.9,Pink to Blue,4,4,-0.059526115461621766
687,0trrmhdwc,58,74,1,1614.09999999404,Experiment,5 4 4 8 2 8,2 6 8 8 8 4,31,36,22,Female ,Yes,9.9,Pink to Blue,4,4,-0.059526115461621766
688,0trrmhdwc,59,74,0,5383.0,Experiment,11 7 11 10 7 11,7 7 7 11 11 9,57,52,22,Female ,Yes,9.9,Pink to Blue,3,3,-0.059526115461621766
689,0trrmhdwc,60,70,0,6612.90000000596,Experiment,7 7 9 4 3 6,7 6 4 9 4 10,36,40,22,Female ,Yes,9.9,Pink to Blue,5,5,-0.059526115461621766
690,0trrmhdwc,61,70,1,3134.80000001192,Experiment,4 4 1 5 7 7,4 2 8 4 4 3,28,25,22,Female ,Yes,9.9,Pink to Blue,4,4,-0.059526115461621766
691,0trrmhdwc,62,70,1,5373.60000002384,Experiment,8 2 5 4 4 8,3 7 6 6 3 2,31,27,22,Female ,Yes,9.9,Pink to Blue,4,4,-0.059526115461621766
692,0trrmhdwc,63,70,1,3274.59999999404,Experiment,5 3 3 4 8 7,2 5 2 8 7 1,30,25,22,Female ,Yes,9.9,Pink to Blue,5,5,-0.059526115461621766
693,0trrmhdwc,64,74,1,3136.29999998212,Experiment,4 6 7 5 1 2,5 1 4 8 7 6,25,31,22,Female ,Yes,9.9,Pink to Blue,6,6,-0.059526115461621766
694,0trrmhdwc,65,74,1,1025.39999997616,Experiment,5 3 2 5 2 7,6 2 8 2 4 8,24,30,22,Female ,Yes,9.9,Pink to Blue,4,4,-0.059526115461621766
695,0trrmhdwc,66,70,1,5009.90000000596,Experiment,10 10 11 6 9 9,7 7 9 9 10 11,55,53,22,Female ,Yes,9.9,Pink to Blue,4,4,-0.059526115461621766
696,0trrmhdwc,67,70,1,3827.79999998212,Experiment,7 1 3 7 6 5,1 6 5 8 4 1,29,25,22,Female ,Yes,9.9,Pink to Blue,5,5,-0.059526115461621766
697,0trrmhdwc,68,74,0,1498.0,Experiment,6 8 10 7 10 8,3 10 8 9 9 9,49,48,22,Female ,Yes,9.9,Pink to Blue,4,4,-0.059526115461621766
698,0trrmhdwc,69,74,1,3659.90000000596,Experiment,8 3 10 8 4 10,6 10 9 10 3 6,43,44,22,Female ,Yes,9.9,Pink to Blue,4,4,-0.059526115461621766
699,0trrmhdwc,70,70,1,1896.0,Experiment,6 8 9 6 9 6,4 5 10 4 10 5,44,38,22,Female ,Yes,9.9,Pink to Blue,3,3,-0.059526115461621766
700,0trrmhdwc,71,74,1,2104.09999999404,Experiment,7 8 7 1 7 6,6 8 6 4 8 5,36,37,22,Female ,Yes,9.9,Pink to Blue,4,4,-0.059526115461621766
701,0trrmhdwc,72,70,1,1599.59999999404,Experiment,1 6 3 5 7 5,8 1 5 6 1 4,27,25,22,Female ,Yes,9.9,Pink to Blue,5,5,-0.059526115461621766
702,0trrmhdwc,73,70,1,2322.30000001192,Experiment,7 9 7 4 8 8,7 7 5 5 9 8,43,41,22,Female ,Yes,9.9,Pink to Blue,4,4,-0.059526115461621766
