,subject,Trial,key_press,accuracy,rt,trial_type,arrL,arrR,ValL,ValR,Age,Gender,FullColorVision,compensation,rainbow,nValL,nValR,skew
0,04xt5f0a4,1,70,1,6298.5,Training,8 12 11 7 11 4,2 11 1 8 7 4,53,33,38,,,12.53,Blue to Pink,5,6,-0.07168374523882032
1,04xt5f0a4,2,74,1,3908.80000000005,Training,12 3 4 12 12 2,1 4 12 10 7 12,45,46,38,,,12.53,Blue to Pink,4,5,-0.07168374523882032
2,04xt5f0a4,3,74,1,3956.0,Training,11 10 12 7 6 6,6 12 4 12 9 10,52,53,38,,,12.53,Blue to Pink,5,5,-0.07168374523882032
3,04xt5f0a4,4,74,1,1951.39999999991,Training,7 3 3 1 2 10,7 8 11 7 2 2,26,37,38,,,12.53,Blue to Pink,5,4,-0.07168374523882032
4,04xt5f0a4,5,74,1,1468.29999999981,Training,7 9 8 5 2 4,9 11 7 8 12 11,35,58,38,,,12.53,Blue to Pink,6,5,-0.07168374523882032
5,04xt5f0a4,6,74,1,2932.30000000005,Training,8 7 4 6 5 5,4 12 7 9 5 5,35,42,38,,,12.53,Blue to Pink,5,5,-0.07168374523882032
6,04xt5f0a4,7,74,1,1557.80000000005,Training,4 8 2 9 10 2,12 8 2 6 9 7,35,44,38,,,12.53,Blue to Pink,5,6,-0.07168374523882032
7,04xt5f0a4,8,70,1,2275.79999999981,Training,9 1 8 12 9 4,1 3 1 5 9 6,43,25,38,,,12.53,Blue to Pink,5,5,-0.07168374523882032
8,04xt5f0a4,9,74,1,2578.80000000005,Training,12 5 10 1 8 1,2 9 8 12 1 6,37,38,38,,,12.53,Blue to Pink,5,6,-0.07168374523882032
9,04xt5f0a4,10,70,1,1418.5,Training,10 10 1 1 8 7,2 2 2 9 3 1,37,19,38,,,12.53,Blue to Pink,4,4,-0.07168374523882032
10,04xt5f0a4,11,70,1,1573.39999999991,Training,12 12 2 11 12 2,4 5 6 7 5 5,51,32,38,,,12.53,Blue to Pink,3,4,-0.07168374523882032
11,04xt5f0a4,12,74,1,1101.40000000014,Training,2 4 8 4 4 7,11 9 4 2 8 12,29,46,38,,,12.53,Blue to Pink,4,6,-0.07168374523882032
12,04xt5f0a4,13,74,0,2983.19999999995,Training,4 10 10 12 1 12,10 2 11 4 8 6,49,41,38,,,12.53,Blue to Pink,4,6,-0.07168374523882032
13,04xt5f0a4,14,70,1,4554.39999999991,Training,11 2 7 7 6 3,1 3 8 4 12 5,36,33,38,,,12.53,Blue to Pink,5,6,-0.07168374523882032
14,04xt5f0a4,15,74,1,896.399999999907,Training,1 3 5 12 6 9,10 5 10 11 12 7,36,55,38,,,12.53,Blue to Pink,6,5,-0.07168374523882032
15,04xt5f0a4,16,74,0,1372.09999999986,Training,2 4 12 9 8 12,6 10 6 2 11 6,47,41,38,,,12.53,Blue to Pink,5,4,-0.07168374523882032
16,04xt5f0a4,17,70,1,2982.90000000014,Training,5 8 10 5 11 4,3 2 8 5 11 7,43,36,38,,,12.53,Blue to Pink,5,6,-0.07168374523882032
17,04xt5f0a4,18,74,1,3898.29999999981,Training,2 5 10 7 1 1,1 8 5 7 8 1,26,30,38,,,12.53,Blue to Pink,5,4,-0.07168374523882032
18,04xt5f0a4,19,70,1,2007.30000000005,Training,6 7 11 2 9 9,2 1 8 9 6 6,44,32,38,,,12.53,Blue to Pink,5,5,-0.07168374523882032
19,04xt5f0a4,20,70,1,1304.30000000005,Training,2 10 1 8 5 8,2 3 4 3 7 5,34,24,38,,,12.53,Blue to Pink,5,5,-0.07168374523882032
20,04xt5f0a4,21,74,1,1144.69999999995,Training,11 7 5 5 1 4,10 10 9 12 6 11,33,58,38,,,12.53,Blue to Pink,5,5,-0.07168374523882032
21,04xt5f0a4,22,74,1,681.40000000014,Training,10 6 2 4 2 2,12 11 10 7 9 3,26,52,38,,,12.53,Blue to Pink,4,6,-0.07168374523882032
22,04xt5f0a4,23,70,1,1047.09999999986,Training,11 9 6 7 9 5,4 1 4 9 3 10,47,31,38,,,12.53,Blue to Pink,5,5,-0.07168374523882032
23,04xt5f0a4,24,74,1,856.59999999986,Training,4 10 9 7 10 8,10 9 10 9 4 9,48,51,38,,,12.53,Blue to Pink,5,3,-0.07168374523882032
24,04xt5f0a4,25,74,1,1287.59999999986,Training,7 10 7 6 4 10,8 11 11 7 12 3,44,52,38,,,12.53,Blue to Pink,4,5,-0.07168374523882032
25,04xt5f0a4,26,70,1,5287.09999999986,Training,2 4 12 1 10 11,2 4 6 6 6 7,40,31,38,,,12.53,Blue to Pink,6,4,-0.07168374523882032
26,04xt5f0a4,27,70,1,2034.69999999995,Training,12 6 2 6 8 11,4 5 7 12 4 3,45,35,38,,,12.53,Blue to Pink,5,5,-0.07168374523882032
27,04xt5f0a4,28,70,1,833.899999999907,Training,11 9 11 5 5 4,5 2 1 7 3 4,45,22,38,,,12.53,Blue to Pink,4,6,-0.07168374523882032
28,04xt5f0a4,29,70,1,1790.70000000019,Training,9 12 4 10 6 6,11 7 11 1 5 2,47,37,38,,,12.53,Blue to Pink,5,5,-0.07168374523882032
29,04xt5f0a4,30,74,1,1266.30000000005,Training,11 1 12 10 10 11,10 11 10 5 11 9,55,56,38,,,12.53,Blue to Pink,4,4,-0.07168374523882032
30,04xt5f0a4,1,74,0,1817.69999999972,Experiment,1 5 8 5 8 5,5 6 4 5 6 4,32,30,38,,,12.53,Blue to Pink,3,3,-0.07168374523882032
31,04xt5f0a4,2,74,0,1358.79999999981,Experiment,12 8 10 10 12 9,11 5 10 11 12 11,61,60,38,,,12.53,Blue to Pink,4,4,-0.07168374523882032
32,04xt5f0a4,3,70,1,2010.0,Experiment,7 9 11 8 8 10,8 11 6 11 7 9,53,52,38,,,12.53,Blue to Pink,5,5,-0.07168374523882032
33,04xt5f0a4,4,74,0,2309.80000000028,Experiment,6 2 8 8 6 4,8 1 5 8 6 5,34,33,38,,,12.53,Blue to Pink,4,4,-0.07168374523882032
34,04xt5f0a4,5,70,1,1374.70000000019,Experiment,2 1 7 8 7 4,2 5 4 5 1 7,29,24,38,,,12.53,Blue to Pink,5,5,-0.07168374523882032
35,04xt5f0a4,6,70,1,2917.39999999991,Experiment,5 7 3 8 9 8,10 5 4 7 5 8,40,39,38,,,12.53,Blue to Pink,5,5,-0.07168374523882032
36,04xt5f0a4,7,70,0,3209.10000000009,Experiment,8 12 9 8 6 5,12 6 9 7 8 7,48,49,38,,,12.53,Blue to Pink,5,5,-0.07168374523882032
37,04xt5f0a4,8,74,1,934.600000000093,Experiment,8 5 4 5 8 10,5 8 5 9 10 8,40,45,38,,,12.53,Blue to Pink,4,4,-0.07168374523882032
38,04xt5f0a4,9,74,1,1699.79999999981,Experiment,7 1 4 7 2 8,4 1 7 6 7 8,29,33,38,,,12.53,Blue to Pink,5,5,-0.07168374523882032
39,04xt5f0a4,10,74,1,2471.60000000009,Experiment,3 3 7 9 9 8,9 9 4 7 5 9,39,43,38,,,12.53,Blue to Pink,4,4,-0.07168374523882032
40,04xt5f0a4,11,70,1,1455.79999999981,Experiment,4 10 8 4 10 6,4 7 5 7 9 4,42,36,38,,,12.53,Blue to Pink,4,4,-0.07168374523882032
41,04xt5f0a4,12,70,1,1510.60000000009,Experiment,11 10 10 7 6 7,12 6 12 5 6 8,51,49,38,,,12.53,Blue to Pink,4,4,-0.07168374523882032
42,04xt5f0a4,13,74,1,1576.10000000009,Experiment,3 10 7 3 9 7,5 8 5 8 10 6,39,42,38,,,12.53,Blue to Pink,4,4,-0.07168374523882032
43,04xt5f0a4,14,70,1,1635.10000000009,Experiment,9 12 12 5 9 9,10 8 9 8 9 10,56,54,38,,,12.53,Blue to Pink,3,3,-0.07168374523882032
44,04xt5f0a4,15,74,1,788.899999999907,Experiment,11 8 6 5 12 8,8 7 10 6 10 11,50,52,38,,,12.53,Blue to Pink,5,5,-0.07168374523882032
45,04xt5f0a4,16,70,1,2246.10000000009,Experiment,5 7 6 2 5 6,6 3 5 3 5 7,31,29,38,,,12.53,Blue to Pink,4,4,-0.07168374523882032
46,04xt5f0a4,17,74,0,1214.20000000019,Experiment,5 6 7 7 4 8,6 5 3 8 7 7,37,36,38,,,12.53,Blue to Pink,5,5,-0.07168374523882032
47,04xt5f0a4,18,74,1,1146.20000000019,Experiment,8 4 8 1 1 3,7 7 3 4 6 3,25,30,38,,,12.53,Blue to Pink,4,4,-0.07168374523882032
48,04xt5f0a4,19,74,1,1087.59999999963,Experiment,4 2 6 8 2 3,7 8 2 1 5 8,25,31,38,,,12.53,Blue to Pink,5,5,-0.07168374523882032
49,04xt5f0a4,20,74,0,1179.39999999991,Experiment,8 4 9 4 10 7,7 8 6 10 4 6,42,41,38,,,12.53,Blue to Pink,5,5,-0.07168374523882032
50,04xt5f0a4,21,70,1,1268.70000000019,Experiment,7 7 4 2 6 3,5 6 1 5 4 3,29,24,38,,,12.53,Blue to Pink,5,5,-0.07168374523882032
51,04xt5f0a4,22,74,1,1332.40000000037,Experiment,6 8 2 8 6 1,8 4 4 1 7 8,31,32,38,,,12.53,Blue to Pink,4,4,-0.07168374523882032
52,04xt5f0a4,23,74,0,1052.40000000037,Experiment,7 3 2 5 8 1,1 7 2 6 5 3,26,24,38,,,12.53,Blue to Pink,6,6,-0.07168374523882032
53,04xt5f0a4,24,74,0,989.0,Experiment,9 8 12 6 12 8,7 6 10 11 10 7,55,51,38,,,12.53,Blue to Pink,4,4,-0.07168374523882032
54,04xt5f0a4,25,70,1,3294.19999999972,Experiment,5 1 3 8 5 8,1 6 4 5 5 6,30,27,38,,,12.53,Blue to Pink,4,4,-0.07168374523882032
55,04xt5f0a4,26,74,1,2092.59999999963,Experiment,9 5 7 5 9 5,9 5 9 8 5 9,40,45,38,,,12.53,Blue to Pink,3,3,-0.07168374523882032
56,04xt5f0a4,27,74,1,1909.29999999981,Experiment,3 6 8 5 3 2,5 7 3 1 6 6,27,28,38,,,12.53,Blue to Pink,5,5,-0.07168374523882032
57,04xt5f0a4,28,70,1,1519.70000000019,Experiment,9 7 5 8 7 3,10 3 6 3 8 7,39,37,38,,,12.53,Blue to Pink,5,5,-0.07168374523882032
58,04xt5f0a4,29,70,1,1405.20000000019,Experiment,7 5 7 4 1 4,8 2 4 4 3 4,28,25,38,,,12.53,Blue to Pink,4,4,-0.07168374523882032
59,04xt5f0a4,30,74,1,1061.20000000019,Experiment,1 7 8 8 2 1,6 4 3 8 6 6,27,33,38,,,12.53,Blue to Pink,4,4,-0.07168374523882032
60,04xt5f0a4,31,70,1,2857.30000000028,Experiment,1 5 4 7 7 4,5 1 2 5 5 7,28,25,38,,,12.53,Blue to Pink,4,4,-0.07168374523882032
61,04xt5f0a4,32,74,1,954.600000000093,Experiment,10 5 11 9 5 11,6 11 11 7 9 11,51,55,38,,,12.53,Blue to Pink,4,4,-0.07168374523882032
62,04xt5f0a4,33,70,1,997.5,Experiment,10 6 7 9 8 3,8 9 4 7 6 3,43,37,38,,,12.53,Blue to Pink,6,6,-0.07168374523882032
63,04xt5f0a4,34,70,1,1758.30000000028,Experiment,5 7 6 5 10 9,7 9 3 10 4 4,42,37,38,,,12.53,Blue to Pink,5,5,-0.07168374523882032
64,04xt5f0a4,35,74,1,999.200000000186,Experiment,6 11 5 12 12 5,10 10 10 12 7 8,51,57,38,,,12.53,Blue to Pink,4,4,-0.07168374523882032
65,04xt5f0a4,36,70,1,1974.5,Experiment,7 6 1 5 5 3,4 5 1 8 1 6,27,25,38,,,12.53,Blue to Pink,5,5,-0.07168374523882032
66,04xt5f0a4,37,70,1,1606.89999999991,Experiment,6 9 9 7 6 3,6 5 6 4 10 6,40,37,38,,,12.53,Blue to Pink,4,4,-0.07168374523882032
67,04xt5f0a4,38,74,0,2426.60000000009,Experiment,4 8 6 8 2 8,4 8 8 4 5 2,36,31,38,,,12.53,Blue to Pink,4,4,-0.07168374523882032
68,04xt5f0a4,39,74,1,1201.30000000028,Experiment,6 4 8 9 4 5,6 7 4 8 10 7,36,42,38,,,12.53,Blue to Pink,5,5,-0.07168374523882032
69,04xt5f0a4,40,70,1,2032.89999999991,Experiment,2 6 8 6 3 1,3 8 1 3 5 4,26,24,38,,,12.53,Blue to Pink,5,5,-0.07168374523882032
70,04xt5f0a4,41,74,1,1625.29999999981,Experiment,10 10 8 3 7 7,10 10 4 6 8 8,45,46,38,,,12.53,Blue to Pink,4,4,-0.07168374523882032
71,04xt5f0a4,42,70,1,2344.60000000009,Experiment,6 8 12 11 11 5,6 11 9 9 8 5,53,48,38,,,12.53,Blue to Pink,5,5,-0.07168374523882032
72,04xt5f0a4,43,74,1,849.799999999814,Experiment,10 4 6 4 3 10,9 8 5 8 5 4,37,39,38,,,12.53,Blue to Pink,4,4,-0.07168374523882032
73,04xt5f0a4,44,74,0,1649.70000000019,Experiment,11 9 8 8 11 5,9 11 9 5 9 6,52,49,38,,,12.53,Blue to Pink,4,4,-0.07168374523882032
74,04xt5f0a4,45,70,1,1476.20000000019,Experiment,9 9 6 5 8 4,5 7 3 6 8 7,41,36,38,,,12.53,Blue to Pink,5,5,-0.07168374523882032
75,04xt5f0a4,46,74,1,909.600000000093,Experiment,9 6 5 11 8 9,8 11 6 9 12 6,48,52,38,,,12.53,Blue to Pink,5,5,-0.07168374523882032
76,04xt5f0a4,47,70,1,1873.09999999963,Experiment,6 3 6 2 7 4,7 1 8 4 2 4,28,26,38,,,12.53,Blue to Pink,5,5,-0.07168374523882032
77,04xt5f0a4,48,70,1,3509.70000000019,Experiment,12 10 8 6 12 6,9 11 7 9 6 6,54,48,38,,,12.53,Blue to Pink,4,4,-0.07168374523882032
78,04xt5f0a4,49,74,0,3016.40000000037,Experiment,3 5 8 10 4 8,5 5 10 7 6 3,38,36,38,,,12.53,Blue to Pink,5,5,-0.07168374523882032
79,04xt5f0a4,50,74,1,1117.30000000028,Experiment,5 10 10 9 8 9,12 12 5 7 9 9,51,54,38,,,12.53,Blue to Pink,4,4,-0.07168374523882032
80,04xt5f0a4,51,74,0,1441.29999999981,Experiment,10 6 8 9 9 7,9 7 10 9 8 5,49,48,38,,,12.53,Blue to Pink,5,5,-0.07168374523882032
81,04xt5f0a4,52,74,1,1414.79999999981,Experiment,6 8 10 9 8 7,11 10 11 7 5 6,48,50,38,,,12.53,Blue to Pink,5,5,-0.07168374523882032
82,04xt5f0a4,53,70,0,1072.69999999972,Experiment,9 6 7 9 11 11,12 9 6 12 8 12,53,59,38,,,12.53,Blue to Pink,4,4,-0.07168374523882032
83,04xt5f0a4,54,70,0,1904.19999999972,Experiment,7 7 7 6 1 8,4 6 8 8 6 5,36,37,38,,,12.53,Blue to Pink,4,4,-0.07168374523882032
84,04xt5f0a4,55,74,1,2941.69999999972,Experiment,9 3 9 6 8 10,9 5 8 10 7 8,45,47,38,,,12.53,Blue to Pink,5,5,-0.07168374523882032
85,04xt5f0a4,56,74,1,1337.0,Experiment,8 10 9 12 5 5,9 7 11 5 10 11,49,53,38,,,12.53,Blue to Pink,5,5,-0.07168374523882032
86,04xt5f0a4,57,70,1,1414.5,Experiment,8 4 8 8 2 5,7 5 3 7 2 5,35,29,38,,,12.53,Blue to Pink,4,4,-0.07168374523882032
87,04xt5f0a4,58,74,0,1341.5,Experiment,8 4 3 3 6 6,5 8 1 1 7 5,30,27,38,,,12.53,Blue to Pink,4,4,-0.07168374523882032
88,04xt5f0a4,59,70,0,2928.10000000009,Experiment,8 7 9 4 5 3,7 5 9 3 4 10,36,38,38,,,12.53,Blue to Pink,6,6,-0.07168374523882032
89,04xt5f0a4,60,70,1,1437.39999999991,Experiment,4 5 8 5 6 2,6 2 7 2 4 3,30,24,38,,,12.53,Blue to Pink,5,5,-0.07168374523882032
90,04xt5f0a4,61,74,1,4387.10000000009,Experiment,4 6 7 7 7 10,3 8 8 7 8 10,41,44,38,,,12.53,Blue to Pink,4,4,-0.07168374523882032
91,04xt5f0a4,62,70,1,4369.79999999981,Experiment,4 6 9 10 4 7,6 3 7 7 9 4,40,36,38,,,12.53,Blue to Pink,5,5,-0.07168374523882032
92,04xt5f0a4,63,70,0,2533.5,Experiment,7 8 11 8 11 6,11 12 10 5 5 12,51,55,38,,,12.53,Blue to Pink,4,4,-0.07168374523882032
93,04xt5f0a4,64,70,1,900.600000000093,Experiment,9 11 10 7 10 5,7 7 6 9 10 12,52,51,38,,,12.53,Blue to Pink,5,5,-0.07168374523882032
94,04xt5f0a4,65,74,0,2052.60000000009,Experiment,2 7 6 3 7 1,2 3 4 6 5 4,26,24,38,,,12.53,Blue to Pink,5,5,-0.07168374523882032
95,04xt5f0a4,66,70,0,2209.70000000019,Experiment,11 10 6 7 5 9,6 9 11 5 7 12,48,50,38,,,12.53,Blue to Pink,6,6,-0.07168374523882032
96,04xt5f0a4,67,70,1,1104.60000000009,Experiment,7 7 12 10 11 10,7 7 10 12 10 6,57,52,38,,,12.53,Blue to Pink,4,4,-0.07168374523882032
97,04xt5f0a4,68,74,1,1069.19999999972,Experiment,8 6 7 11 6 10,9 6 10 9 12 8,48,54,38,,,12.53,Blue to Pink,5,5,-0.07168374523882032
98,04xt5f0a4,69,70,1,821.200000000186,Experiment,8 11 7 10 11 7,5 12 8 5 12 7,54,49,38,,,12.53,Blue to Pink,4,4,-0.07168374523882032
99,04xt5f0a4,70,70,0,2470.30000000028,Experiment,2 4 4 8 5 1,3 4 8 2 3 5,24,25,38,,,12.53,Blue to Pink,5,5,-0.07168374523882032
100,04xt5f0a4,71,74,1,1133.0,Experiment,4 3 2 8 1 8,6 5 8 5 4 1,26,29,38,,,12.53,Blue to Pink,5,5,-0.07168374523882032
101,04xt5f0a4,72,74,1,1303.10000000009,Experiment,5 2 7 5 2 3,8 8 2 6 4 2,24,30,38,,,12.53,Blue to Pink,4,4,-0.07168374523882032
102,04xt5f0a4,73,74,0,1327.29999999981,Experiment,6 7 6 3 3 2,2 1 8 8 2 4,27,25,38,,,12.53,Blue to Pink,4,4,-0.07168374523882032
103,04xt5f0a4,74,74,1,942.300000000279,Experiment,4 7 9 9 7 5,10 10 7 6 10 4,41,47,38,,,12.53,Blue to Pink,4,4,-0.07168374523882032
104,04xt5f0a4,75,70,1,2021.39999999991,Experiment,10 10 7 9 11 12,12 10 11 8 5 11,59,57,38,,,12.53,Blue to Pink,5,5,-0.07168374523882032
105,04xt5f0a4,76,74,1,1509.30000000028,Experiment,3 10 4 3 10 9,5 8 10 6 8 8,39,45,38,,,12.53,Blue to Pink,4,4,-0.07168374523882032
106,04xt5f0a4,77,70,1,1355.5,Experiment,5 2 8 7 4 2,6 5 4 7 1 1,28,24,38,,,12.53,Blue to Pink,5,5,-0.07168374523882032
107,04xt5f0a4,78,74,0,1177.19999999972,Experiment,10 6 3 9 10 6,10 3 4 8 10 8,44,43,38,,,12.53,Blue to Pink,4,4,-0.07168374523882032
108,04xt5f0a4,79,70,0,1800.40000000037,Experiment,6 11 7 8 11 5,5 11 5 6 10 12,48,49,38,,,12.53,Blue to Pink,5,5,-0.07168374523882032
109,04xt5f0a4,80,74,1,918.200000000186,Experiment,11 12 6 5 9 6,12 9 7 7 11 8,49,54,38,,,12.53,Blue to Pink,5,5,-0.07168374523882032
110,04xt5f0a4,81,70,0,1957.30000000028,Experiment,6 4 6 8 7 9,10 4 8 9 9 5,40,45,38,,,12.53,Blue to Pink,5,5,-0.07168374523882032
111,04xt5f0a4,82,74,0,1679.19999999972,Experiment,10 9 6 12 6 11,9 12 6 8 10 8,54,53,38,,,12.53,Blue to Pink,5,5,-0.07168374523882032
112,04xt5f0a4,83,70,1,2404.59999999963,Experiment,7 7 6 1 5 3,6 4 1 8 1 5,29,25,38,,,12.53,Blue to Pink,5,5,-0.07168374523882032
113,04xt5f0a4,84,74,1,3145.69999999972,Experiment,6 8 9 9 12 9,12 9 5 10 10 10,53,56,38,,,12.53,Blue to Pink,4,4,-0.07168374523882032
114,04xt5f0a4,85,74,0,1539.5,Experiment,3 10 7 10 7 7,7 8 6 6 8 7,44,42,38,,,12.53,Blue to Pink,3,3,-0.07168374523882032
115,04xt5f0a4,86,74,1,828.800000000279,Experiment,11 9 9 12 5 5,7 7 8 10 10 12,51,54,38,,,12.53,Blue to Pink,4,4,-0.07168374523882032
116,04xt5f0a4,87,74,0,2751.10000000009,Experiment,11 7 7 6 12 8,8 11 7 6 9 8,51,49,38,,,12.53,Blue to Pink,5,5,-0.07168374523882032
117,04xt5f0a4,88,74,0,1581.29999999981,Experiment,10 4 10 5 8 5,10 10 4 3 3 6,42,36,38,,,12.53,Blue to Pink,4,4,-0.07168374523882032
118,04xt5f0a4,89,70,1,1826.59999999963,Experiment,10 6 7 4 5 5,10 7 4 6 6 3,37,36,38,,,12.53,Blue to Pink,5,5,-0.07168374523882032
119,04xt5f0a4,90,74,0,1893.20000000019,Experiment,7 6 9 8 5 6,5 9 4 9 7 6,41,40,38,,,12.53,Blue to Pink,5,5,-0.07168374523882032
120,04xt5f0a4,91,70,1,10269.5,Experiment,3 2 8 3 8 6,8 8 1 2 4 1,30,24,38,,,12.53,Blue to Pink,4,4,-0.07168374523882032
121,04xt5f0a4,92,74,1,1505.89999999991,Experiment,1 5 2 2 7 8,4 3 7 3 8 5,25,30,38,,,12.53,Blue to Pink,5,5,-0.07168374523882032
122,04xt5f0a4,93,74,1,929.100000000093,Experiment,10 4 6 6 7 10,10 4 8 6 10 10,43,48,38,,,12.53,Blue to Pink,4,4,-0.07168374523882032
123,04xt5f0a4,94,70,1,1269.29999999981,Experiment,5 4 2 2 8 7,5 4 1 7 2 5,28,24,38,,,12.53,Blue to Pink,5,5,-0.07168374523882032
124,04xt5f0a4,95,74,1,702.100000000093,Experiment,12 6 7 8 8 8,11 9 5 8 8 11,49,52,38,,,12.53,Blue to Pink,4,4,-0.07168374523882032
125,04xt5f0a4,96,74,1,1074.39999999991,Experiment,7 11 7 11 7 9,11 10 11 11 7 7,52,57,38,,,12.53,Blue to Pink,3,3,-0.07168374523882032
126,04xt5f0a4,97,70,1,983.5,Experiment,8 7 10 6 3 7,3 5 10 6 4 10,41,38,38,,,12.53,Blue to Pink,5,5,-0.07168374523882032
127,04xt5f0a4,98,70,1,1552.0,Experiment,3 8 7 6 3 6,6 3 8 2 6 3,33,28,38,,,12.53,Blue to Pink,4,4,-0.07168374523882032
128,04xt5f0a4,99,74,1,689.100000000093,Experiment,9 9 9 6 4 9,6 6 8 10 10 8,46,48,38,,,12.53,Blue to Pink,3,3,-0.07168374523882032
129,04xt5f0a4,100,74,0,2027.20000000019,Experiment,10 3 8 3 9 10,9 6 5 9 6 4,43,39,38,,,12.53,Blue to Pink,4,4,-0.07168374523882032
130,04xt5f0a4,101,74,0,1512.20000000019,Experiment,11 9 10 9 6 10,9 7 9 10 11 7,55,53,38,,,12.53,Blue to Pink,4,4,-0.07168374523882032
131,04xt5f0a4,102,74,1,965.400000000373,Experiment,10 3 10 3 6 5,6 8 9 5 9 5,37,42,38,,,12.53,Blue to Pink,4,4,-0.07168374523882032
132,04xt5f0a4,103,74,1,1694.89999999991,Experiment,3 8 2 2 3 8,4 4 7 4 6 7,26,32,38,,,12.53,Blue to Pink,3,3,-0.07168374523882032
133,04xt5f0a4,104,74,0,1107.5,Experiment,7 10 8 10 6 8,9 9 10 8 9 3,49,48,38,,,12.53,Blue to Pink,4,4,-0.07168374523882032
134,04xt5f0a4,105,74,0,3013.0,Experiment,3 6 8 5 6 7,4 8 6 7 1 7,35,33,38,,,12.53,Blue to Pink,5,5,-0.07168374523882032
135,04xt5f0a4,106,74,1,2525.70000000019,Experiment,7 6 4 2 5 1,1 7 4 6 8 5,25,31,38,,,12.53,Blue to Pink,6,6,-0.07168374523882032
136,04xt5f0a4,107,70,1,1129.5,Experiment,12 8 10 9 5 11,8 11 5 10 6 9,55,49,38,,,12.53,Blue to Pink,6,6,-0.07168374523882032
137,04xt5f0a4,108,74,1,1909.19999999972,Experiment,3 7 3 5 3 7,7 3 7 7 6 3,28,33,38,,,12.53,Blue to Pink,3,3,-0.07168374523882032
138,04xt5f0a4,109,74,1,1213.60000000009,Experiment,10 12 7 9 11 11,10 11 8 11 12 9,60,61,38,,,12.53,Blue to Pink,5,5,-0.07168374523882032
139,04xt5f0a4,110,74,1,1735.89999999991,Experiment,6 4 10 8 5 4,7 9 3 10 10 4,37,43,38,,,12.53,Blue to Pink,5,5,-0.07168374523882032
140,04xt5f0a4,111,74,0,1983.79999999981,Experiment,11 9 5 9 10 7,5 12 10 5 8 9,51,49,38,,,12.53,Blue to Pink,5,5,-0.07168374523882032
141,04xt5f0a4,112,74,1,1552.10000000009,Experiment,11 12 11 8 6 5,12 8 11 5 11 10,53,57,38,,,12.53,Blue to Pink,5,5,-0.07168374523882032
142,04xt5f0a4,113,74,1,4176.89999999991,Experiment,3 7 9 8 3 6,6 4 4 9 7 10,36,40,38,,,12.53,Blue to Pink,5,5,-0.07168374523882032
143,04xt5f0a4,114,74,1,4670.5,Experiment,8 8 6 9 12 12,12 6 10 12 12 8,55,60,38,,,12.53,Blue to Pink,4,4,-0.07168374523882032
144,04xt5f0a4,115,70,0,1709.0,Experiment,8 10 11 5 5 9,8 9 11 6 12 6,48,52,38,,,12.53,Blue to Pink,5,5,-0.07168374523882032
145,04xt5f0a4,116,70,1,1449.5,Experiment,9 6 3 8 9 10,10 4 9 9 6 3,45,41,38,,,12.53,Blue to Pink,5,5,-0.07168374523882032
146,04xt5f0a4,117,74,1,1204.70000000019,Experiment,4 3 1 8 7 8,8 3 5 7 6 5,31,34,38,,,12.53,Blue to Pink,5,5,-0.07168374523882032
147,04xt5f0a4,118,74,0,1486.39999999991,Experiment,12 8 12 10 8 10,11 11 8 11 11 6,60,58,38,,,12.53,Blue to Pink,3,3,-0.07168374523882032
148,04xt5f0a4,119,70,0,2495.79999999981,Experiment,3 6 2 3 7 6,8 4 4 8 5 2,27,31,38,,,12.53,Blue to Pink,4,4,-0.07168374523882032
149,04xt5f0a4,120,74,1,1521.79999999981,Experiment,9 12 9 10 12 5,12 12 8 6 10 10,57,58,38,,,12.53,Blue to Pink,4,4,-0.07168374523882032
150,04xt5f0a4,121,70,1,3190.5,Experiment,5 8 8 6 9 4,6 10 9 4 6 3,40,38,38,,,12.53,Blue to Pink,5,5,-0.07168374523882032
151,04xt5f0a4,122,74,1,1738.20000000019,Experiment,6 8 3 8 7 7,7 10 7 3 10 5,39,42,38,,,12.53,Blue to Pink,4,4,-0.07168374523882032
152,04xt5f0a4,123,70,1,1334.90000000037,Experiment,10 8 6 11 7 11,5 10 9 8 7 9,53,48,38,,,12.53,Blue to Pink,5,5,-0.07168374523882032
153,04xt5f0a4,124,74,1,1031.5,Experiment,7 4 7 7 3 9,7 6 6 3 9 9,37,40,38,,,12.53,Blue to Pink,4,4,-0.07168374523882032
154,04xt5f0a4,125,70,1,1627.30000000028,Experiment,8 6 6 6 9 9,10 4 5 4 10 5,44,38,38,,,12.53,Blue to Pink,3,3,-0.07168374523882032
155,04xt5f0a4,126,74,1,794.799999999814,Experiment,10 3 7 3 6 8,9 3 5 8 7 9,37,41,38,,,12.53,Blue to Pink,5,5,-0.07168374523882032
156,04xt5f0a4,127,74,0,1228.60000000009,Experiment,8 4 3 9 5 9,4 7 6 8 5 6,38,36,38,,,12.53,Blue to Pink,5,5,-0.07168374523882032
157,04xt5f0a4,128,74,1,1286.5,Experiment,5 7 6 4 4 2,7 3 2 6 7 8,28,33,38,,,12.53,Blue to Pink,5,5,-0.07168374523882032
158,04xt5f0a4,129,74,1,955.799999999814,Experiment,5 11 12 7 8 12,9 12 11 7 9 10,55,58,38,,,12.53,Blue to Pink,5,5,-0.07168374523882032
159,04xt5f0a4,130,70,0,1465.0,Experiment,6 7 6 9 5 4,5 6 9 10 4 5,37,39,38,,,12.53,Blue to Pink,5,5,-0.07168374523882032
160,04xt5f0a4,131,70,0,1734.30000000028,Experiment,9 10 8 11 6 8,12 10 6 11 7 11,52,57,38,,,12.53,Blue to Pink,5,5,-0.07168374523882032
161,04xt5f0a4,132,74,1,942.200000000186,Experiment,3 4 5 7 7 2,4 3 6 5 7 4,28,29,38,,,12.53,Blue to Pink,5,5,-0.07168374523882032
162,04xt5f0a4,133,74,0,1863.20000000019,Experiment,8 4 8 4 6 6,7 7 7 2 4 7,36,34,38,,,12.53,Blue to Pink,3,3,-0.07168374523882032
163,04xt5f0a4,134,74,0,1925.79999999981,Experiment,12 9 8 10 9 5,12 8 6 7 12 5,53,50,38,,,12.53,Blue to Pink,5,5,-0.07168374523882032
164,04xt5f0a4,135,70,1,4922.5,Experiment,7 8 1 1 8 6,4 3 7 7 2 4,31,27,38,,,12.53,Blue to Pink,4,4,-0.07168374523882032
165,04xt5f0a4,136,70,1,3406.10000000009,Experiment,9 9 6 4 10 3,3 9 6 7 7 4,41,36,38,,,12.53,Blue to Pink,5,5,-0.07168374523882032
166,04xt5f0a4,137,70,1,1501.20000000019,Experiment,6 6 7 4 10 10,5 8 5 8 9 4,43,39,38,,,12.53,Blue to Pink,4,4,-0.07168374523882032
167,04xt5f0a4,138,70,1,1549.0,Experiment,10 7 8 9 7 5,10 6 3 10 9 5,46,43,38,,,12.53,Blue to Pink,5,5,-0.07168374523882032
168,04xt5f0a4,139,74,0,3015.80000000028,Experiment,1 7 2 6 8 1,2 3 4 1 7 7,25,24,38,,,12.53,Blue to Pink,5,5,-0.07168374523882032
169,04xt5f0a4,140,74,1,1098.0,Experiment,12 5 5 6 8 12,6 10 12 7 12 7,48,54,38,,,12.53,Blue to Pink,4,4,-0.07168374523882032
170,04xt5f0a4,141,74,1,2769.10000000009,Experiment,7 1 1 7 5 6,7 3 5 7 2 7,27,31,38,,,12.53,Blue to Pink,4,4,-0.07168374523882032
171,04xt5f0a4,142,74,0,1584.0,Experiment,10 6 7 5 12 10,5 7 8 12 7 9,50,48,38,,,12.53,Blue to Pink,5,5,-0.07168374523882032
172,04xt5f0a4,143,70,0,1276.89999999991,Experiment,3 5 6 9 9 4,10 3 9 3 8 4,36,37,38,,,12.53,Blue to Pink,5,5,-0.07168374523882032
173,04xt5f0a4,144,70,1,1445.20000000019,Experiment,8 7 7 9 8 4,7 8 9 7 5 5,43,41,38,,,12.53,Blue to Pink,4,4,-0.07168374523882032
174,04xt5f0a4,145,70,1,3668.0,Experiment,11 8 5 12 8 12,6 5 10 10 12 12,56,55,38,,,12.53,Blue to Pink,4,4,-0.07168374523882032
175,04xt5f0a4,146,74,1,2461.30000000028,Experiment,2 4 6 8 5 4,6 2 2 8 5 7,29,30,38,,,12.53,Blue to Pink,5,5,-0.07168374523882032
176,04xt5f0a4,147,74,0,2698.89999999991,Experiment,6 6 1 6 5 8,5 5 4 2 5 8,32,29,38,,,12.53,Blue to Pink,4,4,-0.07168374523882032
177,04xt5f0a4,148,74,1,1670.90000000037,Experiment,12 7 7 6 12 6,8 10 11 8 11 8,50,56,38,,,12.53,Blue to Pink,3,3,-0.07168374523882032
178,04xt5f0a4,149,74,1,2647.70000000019,Experiment,2 4 7 5 4 3,3 7 3 2 8 4,25,27,38,,,12.53,Blue to Pink,5,5,-0.07168374523882032
179,04xt5f0a4,150,74,1,756.100000000093,Experiment,10 8 6 6 7 12,12 11 6 9 12 5,49,55,38,,,12.53,Blue to Pink,5,5,-0.07168374523882032
180,0kujfapv9,1,70,1,3980.40000000596,Training,11 12 6 1 8 11,3 2 4 4 6 7,49,26,26,Male,Yes,12.56,Blue to Pink,5,5,0.08036867355709415
181,0kujfapv9,2,70,1,1671.30000001192,Training,2 10 11 2 6 10,5 12 7 1 1 11,41,37,26,Male,Yes,12.56,Blue to Pink,4,5,0.08036867355709415
182,0kujfapv9,3,74,0,2003.79999998212,Training,10 5 7 4 5 1,4 7 2 5 11 2,32,31,26,Male,Yes,12.56,Blue to Pink,5,5,0.08036867355709415
183,0kujfapv9,4,74,1,923.59999999404,Training,2 8 8 4 2 2,2 9 8 6 11 5,26,41,26,Male,Yes,12.56,Blue to Pink,3,6,0.08036867355709415
184,0kujfapv9,5,70,1,1994.59999999404,Training,9 4 7 12 4 1,1 1 10 6 5 5,37,28,26,Male,Yes,12.56,Blue to Pink,5,4,0.08036867355709415
185,0kujfapv9,6,74,0,2803.90000000596,Training,9 4 4 3 8 10,4 8 1 10 1 11,38,35,26,Male,Yes,12.56,Blue to Pink,5,5,0.08036867355709415
186,0kujfapv9,7,70,1,995.299999982119,Training,9 1 11 6 10 8,4 7 10 5 10 8,45,44,26,Male,Yes,12.56,Blue to Pink,6,5,0.08036867355709415
187,0kujfapv9,8,70,1,637.799999982119,Training,9 3 2 10 12 6,4 1 5 8 1 2,42,21,26,Male,Yes,12.56,Blue to Pink,6,5,0.08036867355709415
188,0kujfapv9,9,74,1,579.699999988079,Training,2 2 11 7 2 9,11 3 10 10 6 3,33,43,26,Male,Yes,12.56,Blue to Pink,4,4,0.08036867355709415
189,0kujfapv9,10,70,1,526.0,Training,2 11 8 9 11 9,4 5 3 10 7 7,50,36,26,Male,Yes,12.56,Blue to Pink,4,5,0.08036867355709415
190,0kujfapv9,11,70,1,621.399999976158,Training,11 2 11 9 8 5,12 5 8 4 1 6,46,36,26,Male,Yes,12.56,Blue to Pink,5,6,0.08036867355709415
191,0kujfapv9,12,70,1,963.40000000596,Training,4 11 8 3 12 2,2 4 1 1 12 2,40,22,26,Male,Yes,12.56,Blue to Pink,6,4,0.08036867355709415
192,0kujfapv9,13,74,1,631.09999999404,Training,8 4 10 5 4 7,7 2 10 8 4 12,38,43,26,Male,Yes,12.56,Blue to Pink,5,6,0.08036867355709415
193,0kujfapv9,14,74,1,668.40000000596,Training,4 3 7 10 1 2,11 5 9 4 7 2,27,38,26,Male,Yes,12.56,Blue to Pink,6,6,0.08036867355709415
194,0kujfapv9,15,70,1,613.800000011921,Training,8 11 10 2 7 4,4 10 6 4 6 2,42,32,26,Male,Yes,12.56,Blue to Pink,6,4,0.08036867355709415
195,0kujfapv9,16,74,1,448.90000000596,Training,11 6 2 6 7 2,2 5 4 9 11 9,34,40,26,Male,Yes,12.56,Blue to Pink,4,5,0.08036867355709415
196,0kujfapv9,17,70,1,513.09999999404,Training,12 8 9 4 12 9,8 7 6 10 3 6,54,40,26,Male,Yes,12.56,Blue to Pink,4,5,0.08036867355709415
197,0kujfapv9,18,70,0,748.799999982119,Training,10 12 3 9 10 1,10 8 12 7 11 5,45,53,26,Male,Yes,12.56,Blue to Pink,5,6,0.08036867355709415
198,0kujfapv9,19,70,1,714.299999982119,Training,3 8 4 9 1 10,1 4 4 7 6 4,35,26,26,Male,Yes,12.56,Blue to Pink,6,4,0.08036867355709415
199,0kujfapv9,20,70,1,869.90000000596,Training,7 9 6 2 10 1,5 2 4 12 5 6,35,34,26,Male,Yes,12.56,Blue to Pink,6,5,0.08036867355709415
200,0kujfapv9,21,74,0,986.600000023842,Training,6 3 11 9 12 4,8 12 10 2 8 4,45,44,26,Male,Yes,12.56,Blue to Pink,6,5,0.08036867355709415
201,0kujfapv9,22,74,0,1525.59999999404,Training,11 3 9 6 2 12,6 10 1 10 3 8,43,38,26,Male,Yes,12.56,Blue to Pink,6,5,0.08036867355709415
202,0kujfapv9,23,70,1,1493.39999997616,Training,5 10 5 1 1 11,6 8 5 5 4 2,33,30,26,Male,Yes,12.56,Blue to Pink,4,5,0.08036867355709415
203,0kujfapv9,24,70,1,1406.79999998212,Training,1 8 11 3 9 5,9 1 9 1 3 11,37,34,26,Male,Yes,12.56,Blue to Pink,6,4,0.08036867355709415
204,0kujfapv9,25,74,1,1284.40000000596,Training,10 10 2 3 11 3,10 12 5 11 11 4,39,53,26,Male,Yes,12.56,Blue to Pink,4,5,0.08036867355709415
205,0kujfapv9,26,70,1,2275.0,Training,5 2 6 7 4 6,3 8 1 1 4 2,30,19,26,Male,Yes,12.56,Blue to Pink,5,5,0.08036867355709415
206,0kujfapv9,27,74,1,830.299999982119,Training,7 6 3 3 7 7,12 9 6 2 8 12,33,49,26,Male,Yes,12.56,Blue to Pink,3,5,0.08036867355709415
207,0kujfapv9,28,70,1,1204.79999998212,Training,2 2 9 9 12 5,2 7 4 9 2 8,39,32,26,Male,Yes,12.56,Blue to Pink,4,5,0.08036867355709415
208,0kujfapv9,29,74,0,3712.59999999404,Training,4 10 12 5 4 8,2 11 9 6 4 10,43,42,26,Male,Yes,12.56,Blue to Pink,5,6,0.08036867355709415
209,0kujfapv9,30,70,0,1686.90000000596,Training,5 5 9 1 3 3,4 6 7 9 6 11,26,43,26,Male,Yes,12.56,Blue to Pink,4,5,0.08036867355709415
210,0kujfapv9,1,74,1,1734.20000001788,Experiment,8 6 7 10 11 6,6 9 12 9 10 8,48,54,26,Male,Yes,12.56,Blue to Pink,5,5,0.08036867355709415
211,0kujfapv9,2,74,1,1001.09999999404,Experiment,8 5 9 10 5 12,11 9 9 7 10 5,49,51,26,Male,Yes,12.56,Blue to Pink,5,5,0.08036867355709415
212,0kujfapv9,3,70,0,1112.40000000596,Experiment,7 4 6 9 9 5,5 6 8 6 7 9,40,41,26,Male,Yes,12.56,Blue to Pink,5,5,0.08036867355709415
213,0kujfapv9,4,74,1,1048.19999998808,Experiment,2 8 2 6 3 4,8 7 2 5 8 1,25,31,26,Male,Yes,12.56,Blue to Pink,5,5,0.08036867355709415
214,0kujfapv9,5,74,1,2063.80000001192,Experiment,10 10 8 9 9 5,9 12 9 7 5 12,51,54,26,Male,Yes,12.56,Blue to Pink,4,4,0.08036867355709415
215,0kujfapv9,6,74,0,922.59999999404,Experiment,4 5 10 6 5 9,6 7 4 5 9 6,39,37,26,Male,Yes,12.56,Blue to Pink,5,5,0.08036867355709415
216,0kujfapv9,7,74,0,3199.0,Experiment,10 4 10 6 7 6,8 5 4 9 5 8,43,39,26,Male,Yes,12.56,Blue to Pink,4,4,0.08036867355709415
217,0kujfapv9,8,70,1,728.700000017881,Experiment,8 5 8 3 5 1,6 5 4 5 6 1,30,27,26,Male,Yes,12.56,Blue to Pink,4,4,0.08036867355709415
218,0kujfapv9,9,74,1,693.40000000596,Experiment,5 9 6 9 4 3,4 3 8 3 10 9,36,37,26,Male,Yes,12.56,Blue to Pink,5,5,0.08036867355709415
219,0kujfapv9,10,70,1,838.299999982119,Experiment,8 6 9 6 9 6,4 4 10 5 5 10,44,38,26,Male,Yes,12.56,Blue to Pink,3,3,0.08036867355709415
220,0kujfapv9,11,74,1,1074.40000000596,Experiment,5 12 8 12 11 7,9 11 10 12 9 7,55,58,26,Male,Yes,12.56,Blue to Pink,5,5,0.08036867355709415
221,0kujfapv9,12,74,1,774.5,Experiment,3 6 9 4 10 9,9 9 8 3 10 6,41,45,26,Male,Yes,12.56,Blue to Pink,5,5,0.08036867355709415
222,0kujfapv9,13,74,1,911.300000011921,Experiment,7 4 2 7 7 7,4 6 6 4 8 8,34,36,26,Male,Yes,12.56,Blue to Pink,3,3,0.08036867355709415
223,0kujfapv9,14,74,1,981.899999976158,Experiment,9 12 8 10 8 6,12 10 6 11 6 9,53,54,26,Male,Yes,12.56,Blue to Pink,5,5,0.08036867355709415
224,0kujfapv9,15,70,0,1134.59999999404,Experiment,3 5 6 3 2 8,1 3 6 7 5 6,27,28,26,Male,Yes,12.56,Blue to Pink,5,5,0.08036867355709415
225,0kujfapv9,16,70,0,1560.59999999404,Experiment,5 4 2 5 5 8,6 6 6 1 8 5,29,32,26,Male,Yes,12.56,Blue to Pink,4,4,0.08036867355709415
226,0kujfapv9,17,70,1,1730.19999998808,Experiment,6 10 3 7 8 7,5 10 3 4 6 10,41,38,26,Male,Yes,12.56,Blue to Pink,5,5,0.08036867355709415
227,0kujfapv9,18,70,1,939.0,Experiment,7 7 12 8 9 11,6 9 5 11 6 12,54,49,26,Male,Yes,12.56,Blue to Pink,5,5,0.08036867355709415
228,0kujfapv9,19,70,1,1141.90000000596,Experiment,12 12 7 7 6 10,5 12 5 6 12 8,54,48,26,Male,Yes,12.56,Blue to Pink,4,4,0.08036867355709415
229,0kujfapv9,20,70,1,1342.40000000596,Experiment,10 10 4 6 7 10,4 7 7 5 9 9,47,41,26,Male,Yes,12.56,Blue to Pink,4,4,0.08036867355709415
230,0kujfapv9,21,74,1,753.199999988079,Experiment,12 10 8 11 5 11,10 10 12 9 7 11,57,59,26,Male,Yes,12.56,Blue to Pink,5,5,0.08036867355709415
231,0kujfapv9,22,70,0,1354.69999998808,Experiment,4 5 1 2 4 8,3 3 2 5 4 8,24,25,26,Male,Yes,12.56,Blue to Pink,5,5,0.08036867355709415
232,0kujfapv9,23,74,1,841.40000000596,Experiment,12 8 7 5 12 5,10 11 7 8 11 7,49,54,26,Male,Yes,12.56,Blue to Pink,4,4,0.08036867355709415
233,0kujfapv9,24,74,0,766.59999999404,Experiment,12 5 9 9 12 9,8 10 9 8 9 10,56,54,26,Male,Yes,12.56,Blue to Pink,3,3,0.08036867355709415
234,0kujfapv9,25,74,1,1594.20000001788,Experiment,8 5 8 2 4 4,8 2 8 8 4 6,31,36,26,Male,Yes,12.56,Blue to Pink,4,4,0.08036867355709415
235,0kujfapv9,26,74,0,770.699999988079,Experiment,11 5 12 9 7 6,11 10 6 5 9 7,50,48,26,Male,Yes,12.56,Blue to Pink,6,6,0.08036867355709415
236,0kujfapv9,27,74,1,592.5,Experiment,6 3 3 10 8 7,7 5 9 3 8 9,37,41,26,Male,Yes,12.56,Blue to Pink,5,5,0.08036867355709415
237,0kujfapv9,28,70,1,776.300000011921,Experiment,11 8 8 11 8 10,12 7 6 7 6 12,56,50,26,Male,Yes,12.56,Blue to Pink,3,3,0.08036867355709415
238,0kujfapv9,29,70,1,931.90000000596,Experiment,7 5 10 7 10 3,7 8 6 7 8 3,42,39,26,Male,Yes,12.56,Blue to Pink,4,4,0.08036867355709415
239,0kujfapv9,30,70,1,781.299999982119,Experiment,10 11 12 7 10 7,7 10 6 12 7 10,57,52,26,Male,Yes,12.56,Blue to Pink,4,4,0.08036867355709415
240,0kujfapv9,31,70,0,998.700000017881,Experiment,1 2 8 4 7 7,7 1 8 7 4 6,29,33,26,Male,Yes,12.56,Blue to Pink,5,5,0.08036867355709415
241,0kujfapv9,32,74,0,687.59999999404,Experiment,12 6 12 10 10 8,9 5 10 9 12 12,58,57,26,Male,Yes,12.56,Blue to Pink,4,4,0.08036867355709415
242,0kujfapv9,33,74,1,680.5,Experiment,5 3 7 3 3 7,6 7 7 3 7 3,28,33,26,Male,Yes,12.56,Blue to Pink,3,3,0.08036867355709415
243,0kujfapv9,34,74,0,714.0,Experiment,10 6 9 6 3 10,10 8 3 4 10 8,44,43,26,Male,Yes,12.56,Blue to Pink,4,4,0.08036867355709415
244,0kujfapv9,35,70,1,674.0,Experiment,10 6 8 4 10 4,7 5 7 4 9 4,42,36,26,Male,Yes,12.56,Blue to Pink,4,4,0.08036867355709415
245,0kujfapv9,36,70,1,564.59999999404,Experiment,8 9 9 9 5 5,7 9 5 9 5 5,45,40,26,Male,Yes,12.56,Blue to Pink,3,3,0.08036867355709415
246,0kujfapv9,37,70,0,1258.29999998212,Experiment,9 12 12 6 8 8,12 8 10 12 12 6,55,60,26,Male,Yes,12.56,Blue to Pink,4,4,0.08036867355709415
247,0kujfapv9,38,74,1,844.59999999404,Experiment,8 3 7 9 3 9,7 9 9 5 9 4,39,43,26,Male,Yes,12.56,Blue to Pink,4,4,0.08036867355709415
248,0kujfapv9,39,70,0,796.700000017881,Experiment,5 8 6 12 11 11,11 12 8 11 5 10,53,57,26,Male,Yes,12.56,Blue to Pink,5,5,0.08036867355709415
249,0kujfapv9,40,74,1,1055.89999997616,Experiment,9 7 5 7 12 8,6 5 12 10 7 10,48,50,26,Male,Yes,12.56,Blue to Pink,5,5,0.08036867355709415
250,0kujfapv9,41,70,0,923.0,Experiment,7 7 9 8 5 5,7 9 8 4 8 7,41,43,26,Male,Yes,12.56,Blue to Pink,4,4,0.08036867355709415
251,0kujfapv9,42,70,1,1356.80000001192,Experiment,8 4 7 2 2 5,6 4 7 1 1 5,28,24,26,Male,Yes,12.56,Blue to Pink,5,5,0.08036867355709415
252,0kujfapv9,43,70,0,755.5,Experiment,5 7 10 8 9 9,10 7 8 11 6 11,48,53,26,Male,Yes,12.56,Blue to Pink,5,5,0.08036867355709415
253,0kujfapv9,44,74,1,899.799999982119,Experiment,9 8 8 5 6 12,7 8 6 12 7 9,48,49,26,Male,Yes,12.56,Blue to Pink,5,5,0.08036867355709415
254,0kujfapv9,45,70,1,611.59999999404,Experiment,9 6 5 9 5 8,10 3 6 3 10 5,42,37,26,Male,Yes,12.56,Blue to Pink,4,4,0.08036867355709415
255,0kujfapv9,46,70,1,995.59999999404,Experiment,10 6 4 7 5 5,4 6 7 3 10 6,37,36,26,Male,Yes,12.56,Blue to Pink,5,5,0.08036867355709415
256,0kujfapv9,47,70,1,833.700000017881,Experiment,3 5 7 9 7 8,10 3 8 6 7 3,39,37,26,Male,Yes,12.56,Blue to Pink,5,5,0.08036867355709415
257,0kujfapv9,48,70,1,614.199999988079,Experiment,4 7 1 8 8 4,8 2 6 8 1 6,32,31,26,Male,Yes,12.56,Blue to Pink,4,4,0.08036867355709415
258,0kujfapv9,49,70,1,1012.20000001788,Experiment,8 11 6 12 5 11,9 9 8 5 6 11,53,48,26,Male,Yes,12.56,Blue to Pink,5,5,0.08036867355709415
259,0kujfapv9,50,70,0,957.200000017881,Experiment,5 7 1 7 6 1,2 7 7 3 7 5,27,31,26,Male,Yes,12.56,Blue to Pink,4,4,0.08036867355709415
260,0kujfapv9,51,70,1,1056.59999999404,Experiment,7 6 2 8 2 5,4 6 8 4 2 5,30,29,26,Male,Yes,12.56,Blue to Pink,5,5,0.08036867355709415
261,0kujfapv9,52,70,1,2278.5,Experiment,8 4 2 6 6 8,8 1 8 5 5 6,34,33,26,Male,Yes,12.56,Blue to Pink,4,4,0.08036867355709415
262,0kujfapv9,53,74,1,1912.0,Experiment,6 8 5 6 4 7,5 9 4 8 9 3,36,38,26,Male,Yes,12.56,Blue to Pink,5,5,0.08036867355709415
263,0kujfapv9,54,74,1,998.800000011921,Experiment,9 4 4 5 6 8,8 7 10 7 4 6,36,42,26,Male,Yes,12.56,Blue to Pink,5,5,0.08036867355709415
264,0kujfapv9,55,74,0,611.800000011921,Experiment,8 6 8 5 4 6,7 7 8 1 6 7,37,36,26,Male,Yes,12.56,Blue to Pink,4,4,0.08036867355709415
265,0kujfapv9,56,70,1,474.5,Experiment,8 10 8 8 7 3,7 6 10 7 4 7,44,41,26,Male,Yes,12.56,Blue to Pink,4,4,0.08036867355709415
266,0kujfapv9,57,70,0,824.09999999404,Experiment,11 8 9 9 5 6,6 6 9 12 11 8,48,52,26,Male,Yes,12.56,Blue to Pink,5,5,0.08036867355709415
267,0kujfapv9,58,74,1,569.5,Experiment,3 7 2 5 5 7,8 8 8 4 5 2,29,35,26,Male,Yes,12.56,Blue to Pink,4,4,0.08036867355709415
268,0kujfapv9,59,70,1,502.299999982119,Experiment,9 11 5 11 8 8,8 7 8 6 12 8,52,49,26,Male,Yes,12.56,Blue to Pink,4,4,0.08036867355709415
269,0kujfapv9,60,70,1,2197.79999998212,Experiment,12 8 10 10 7 10,5 12 6 5 12 11,57,51,26,Male,Yes,12.56,Blue to Pink,4,4,0.08036867355709415
270,0kujfapv9,61,74,1,997.40000000596,Experiment,6 8 3 6 2 3,6 3 3 8 7 6,28,33,26,Male,Yes,12.56,Blue to Pink,4,4,0.08036867355709415
271,0kujfapv9,62,70,1,848.800000011921,Experiment,9 7 10 4 6 4,4 7 9 3 7 6,40,36,26,Male,Yes,12.56,Blue to Pink,5,5,0.08036867355709415
272,0kujfapv9,63,70,1,753.700000017881,Experiment,5 8 4 8 5 9,4 3 10 6 4 10,39,37,26,Male,Yes,12.56,Blue to Pink,4,4,0.08036867355709415
273,0kujfapv9,64,70,0,762.0,Experiment,8 5 10 5 8 4,5 8 10 9 5 8,40,45,26,Male,Yes,12.56,Blue to Pink,4,4,0.08036867355709415
274,0kujfapv9,65,70,1,769.200000017881,Experiment,2 3 7 8 4 3,2 5 4 3 4 7,27,25,26,Male,Yes,12.56,Blue to Pink,5,5,0.08036867355709415
275,0kujfapv9,66,70,1,695.800000011921,Experiment,1 6 7 3 7 5,1 1 5 6 4 8,29,25,26,Male,Yes,12.56,Blue to Pink,5,5,0.08036867355709415
276,0kujfapv9,67,74,0,719.09999999404,Experiment,6 10 8 10 8 7,9 8 10 3 9 9,49,48,26,Male,Yes,12.56,Blue to Pink,4,4,0.08036867355709415
277,0kujfapv9,68,74,1,909.399999976158,Experiment,6 7 7 8 8 6,7 7 7 3 10 10,42,44,26,Male,Yes,12.56,Blue to Pink,3,3,0.08036867355709415
278,0kujfapv9,69,74,1,1060.0,Experiment,8 5 12 6 11 8,7 8 10 11 6 10,50,52,26,Male,Yes,12.56,Blue to Pink,5,5,0.08036867355709415
279,0kujfapv9,70,70,0,2101.20000001788,Experiment,5 5 5 7 2 1,4 7 1 7 5 4,25,28,26,Male,Yes,12.56,Blue to Pink,4,4,0.08036867355709415
280,0kujfapv9,71,70,1,773.300000011921,Experiment,4 8 5 8 4 2,6 3 3 6 7 2,31,27,26,Male,Yes,12.56,Blue to Pink,4,4,0.08036867355709415
281,0kujfapv9,72,74,1,615.09999999404,Experiment,9 5 9 6 9 11,11 8 5 11 9 8,49,52,26,Male,Yes,12.56,Blue to Pink,4,4,0.08036867355709415
282,0kujfapv9,73,74,1,738.5,Experiment,4 3 2 2 6 7,2 6 8 4 5 5,24,30,26,Male,Yes,12.56,Blue to Pink,5,5,0.08036867355709415
283,0kujfapv9,74,74,0,1138.39999997616,Experiment,5 6 10 8 5 8,7 9 3 10 7 3,42,39,26,Male,Yes,12.56,Blue to Pink,4,4,0.08036867355709415
284,0kujfapv9,75,70,0,685.0,Experiment,4 10 10 9 3 3,8 8 10 5 8 6,39,45,26,Male,Yes,12.56,Blue to Pink,4,4,0.08036867355709415
285,0kujfapv9,76,74,1,764.299999982119,Experiment,6 9 8 12 9 9,10 10 10 12 5 9,53,56,26,Male,Yes,12.56,Blue to Pink,4,4,0.08036867355709415
286,0kujfapv9,77,70,1,858.5,Experiment,10 7 11 11 6 5,9 10 6 8 7 8,50,48,26,Male,Yes,12.56,Blue to Pink,5,5,0.08036867355709415
287,0kujfapv9,78,70,1,645.199999988079,Experiment,11 11 7 7 11 10,11 11 9 7 7 7,57,52,26,Male,Yes,12.56,Blue to Pink,3,3,0.08036867355709415
288,0kujfapv9,79,70,1,899.09999999404,Experiment,8 6 6 4 6 3,8 7 8 1 1 2,33,27,26,Male,Yes,12.56,Blue to Pink,4,4,0.08036867355709415
289,0kujfapv9,80,74,1,975.5,Experiment,7 4 6 9 7 3,10 4 9 3 9 6,36,41,26,Male,Yes,12.56,Blue to Pink,5,5,0.08036867355709415
290,0kujfapv9,81,74,1,1037.0,Experiment,8 3 1 4 8 1,3 7 7 4 3 6,25,30,26,Male,Yes,12.56,Blue to Pink,4,4,0.08036867355709415
291,0kujfapv9,82,70,0,982.5,Experiment,8 2 1 2 8 4,6 3 6 2 3 7,25,27,26,Male,Yes,12.56,Blue to Pink,4,4,0.08036867355709415
292,0kujfapv9,83,74,1,1112.30000001192,Experiment,6 7 6 10 8 4,4 10 7 9 8 4,41,42,26,Male,Yes,12.56,Blue to Pink,5,5,0.08036867355709415
293,0kujfapv9,84,74,1,567.700000017881,Experiment,2 7 5 4 5 1,7 1 4 2 8 7,24,29,26,Male,Yes,12.56,Blue to Pink,5,5,0.08036867355709415
294,0kujfapv9,85,70,1,826.5,Experiment,10 9 5 8 9 12,8 12 7 5 12 6,53,50,26,Male,Yes,12.56,Blue to Pink,5,5,0.08036867355709415
295,0kujfapv9,86,74,1,1147.90000000596,Experiment,10 6 6 3 9 4,5 8 6 8 9 4,38,40,26,Male,Yes,12.56,Blue to Pink,5,5,0.08036867355709415
296,0kujfapv9,87,74,0,941.0,Experiment,6 8 3 7 6 5,7 6 8 7 4 1,35,33,26,Male,Yes,12.56,Blue to Pink,5,5,0.08036867355709415
297,0kujfapv9,88,70,1,790.0,Experiment,6 9 12 5 11 12,8 6 10 12 6 7,55,49,26,Male,Yes,12.56,Blue to Pink,5,5,0.08036867355709415
298,0kujfapv9,89,74,0,1245.90000000596,Experiment,12 8 11 11 9 10,12 9 11 7 10 11,61,60,26,Male,Yes,12.56,Blue to Pink,5,5,0.08036867355709415
299,0kujfapv9,90,74,1,1256.19999998808,Experiment,6 9 9 11 11 7,9 12 6 8 12 12,53,59,26,Male,Yes,12.56,Blue to Pink,4,4,0.08036867355709415
300,0kujfapv9,91,74,1,951.09999999404,Experiment,11 8 10 6 8 9,11 12 7 10 11 6,52,57,26,Male,Yes,12.56,Blue to Pink,5,5,0.08036867355709415
301,0kujfapv9,92,74,1,1032.29999998212,Experiment,8 1 1 6 5 4,1 7 5 3 6 5,25,27,26,Male,Yes,12.56,Blue to Pink,5,5,0.08036867355709415
302,0kujfapv9,93,74,1,1103.29999998212,Experiment,7 4 6 3 9 8,9 3 6 10 7 8,37,43,26,Male,Yes,12.56,Blue to Pink,6,6,0.08036867355709415
303,0kujfapv9,94,74,1,1261.20000001788,Experiment,7 3 8 6 7 5,4 7 6 5 7 8,36,37,26,Male,Yes,12.56,Blue to Pink,5,5,0.08036867355709415
304,0kujfapv9,95,74,0,654.799999982119,Experiment,12 9 10 10 8 12,5 11 10 11 12 11,61,60,26,Male,Yes,12.56,Blue to Pink,4,4,0.08036867355709415
305,0kujfapv9,96,70,1,1154.69999998808,Experiment,6 7 3 8 5 5,8 8 7 3 1 4,34,31,26,Male,Yes,12.56,Blue to Pink,5,5,0.08036867355709415
306,0kujfapv9,97,74,0,2366.69999998808,Experiment,9 10 9 6 8 7,9 9 8 7 5 10,49,48,26,Male,Yes,12.56,Blue to Pink,5,5,0.08036867355709415
307,0kujfapv9,98,74,1,1820.0,Experiment,7 12 10 7 9 6,9 5 7 11 10 10,51,52,26,Male,Yes,12.56,Blue to Pink,5,5,0.08036867355709415
308,0kujfapv9,99,70,0,830.299999982119,Experiment,7 10 3 7 8 10,8 8 10 6 4 10,45,46,26,Male,Yes,12.56,Blue to Pink,4,4,0.08036867355709415
309,0kujfapv9,100,74,1,913.40000000596,Experiment,4 4 2 8 3 4,1 7 4 7 5 4,25,28,26,Male,Yes,12.56,Blue to Pink,4,4,0.08036867355709415
310,0kujfapv9,101,70,1,1347.5,Experiment,10 9 6 5 7 5,3 10 4 9 7 4,42,37,26,Male,Yes,12.56,Blue to Pink,5,5,0.08036867355709415
311,0kujfapv9,102,74,1,1307.40000000596,Experiment,5 5 11 9 11 10,11 9 6 11 11 7,51,55,26,Male,Yes,12.56,Blue to Pink,4,4,0.08036867355709415
312,0kujfapv9,103,70,1,1152.79999998212,Experiment,5 4 3 6 4 7,2 5 7 4 7 3,29,28,26,Male,Yes,12.56,Blue to Pink,5,5,0.08036867355709415
313,0kujfapv9,104,70,1,1069.39999997616,Experiment,8 10 12 5 9 11,8 10 11 5 9 6,55,49,26,Male,Yes,12.56,Blue to Pink,6,6,0.08036867355709415
314,0kujfapv9,105,70,1,1373.80000001192,Experiment,7 6 4 4 10 9,3 6 8 9 3 7,40,36,26,Male,Yes,12.56,Blue to Pink,5,5,0.08036867355709415
315,0kujfapv9,106,70,0,1091.90000000596,Experiment,7 8 7 3 6 5,9 4 9 6 5 8,36,41,26,Male,Yes,12.56,Blue to Pink,5,5,0.08036867355709415
316,0kujfapv9,107,70,1,825.199999988079,Experiment,12 8 6 11 6 9,11 5 10 8 5 9,52,48,26,Male,Yes,12.56,Blue to Pink,5,5,0.08036867355709415
317,0kujfapv9,108,70,1,785.5,Experiment,9 5 9 8 10 4,4 8 6 6 9 7,45,40,26,Male,Yes,12.56,Blue to Pink,5,5,0.08036867355709415
318,0kujfapv9,109,70,0,1466.09999999404,Experiment,11 9 6 8 11 7,8 9 11 7 10 8,52,53,26,Male,Yes,12.56,Blue to Pink,5,5,0.08036867355709415
319,0kujfapv9,110,74,1,1177.59999999404,Experiment,10 4 3 6 10 3,10 5 4 5 8 10,36,42,26,Male,Yes,12.56,Blue to Pink,4,4,0.08036867355709415
320,0kujfapv9,111,74,1,1037.69999998808,Experiment,7 9 7 9 10 11,9 10 9 10 6 11,53,55,26,Male,Yes,12.56,Blue to Pink,4,4,0.08036867355709415
321,0kujfapv9,112,74,0,899.199999988079,Experiment,3 4 8 10 5 8,10 5 5 7 6 3,38,36,26,Male,Yes,12.56,Blue to Pink,5,5,0.08036867355709415
322,0kujfapv9,113,74,0,2432.69999998808,Experiment,4 3 2 6 7 6,8 4 7 1 2 4,28,26,26,Male,Yes,12.56,Blue to Pink,5,5,0.08036867355709415
323,0kujfapv9,114,74,1,715.5,Experiment,7 2 3 4 7 4,1 7 8 6 8 1,27,31,26,Male,Yes,12.56,Blue to Pink,4,4,0.08036867355709415
324,0kujfapv9,115,74,1,841.40000000596,Experiment,1 3 4 5 3 8,2 6 3 8 1 6,24,26,26,Male,Yes,12.56,Blue to Pink,5,5,0.08036867355709415
325,0kujfapv9,116,70,1,1189.59999999404,Experiment,8 7 4 3 5 3,2 2 8 1 7 5,30,25,26,Male,Yes,12.56,Blue to Pink,5,5,0.08036867355709415
326,0kujfapv9,117,70,1,671.90000000596,Experiment,5 7 8 8 3 9,5 5 4 10 7 8,40,39,26,Male,Yes,12.56,Blue to Pink,5,5,0.08036867355709415
327,0kujfapv9,118,70,0,1039.20000001788,Experiment,3 9 9 8 6 10,10 5 8 9 7 8,45,47,26,Male,Yes,12.56,Blue to Pink,5,5,0.08036867355709415
328,0kujfapv9,119,70,1,591.09999999404,Experiment,2 6 2 8 8 4,5 3 2 7 5 2,30,24,26,Male,Yes,12.56,Blue to Pink,4,4,0.08036867355709415
329,0kujfapv9,120,74,1,874.0,Experiment,12 5 11 5 9 9,12 7 10 10 7 8,51,54,26,Male,Yes,12.56,Blue to Pink,4,4,0.08036867355709415
330,0kujfapv9,121,70,1,2771.29999998212,Experiment,2 5 8 1 3 7,2 6 1 7 3 5,26,24,26,Male,Yes,12.56,Blue to Pink,6,6,0.08036867355709415
331,0kujfapv9,122,74,1,904.699999988079,Experiment,7 6 10 11 10 7,9 12 6 8 8 12,51,55,26,Male,Yes,12.56,Blue to Pink,4,4,0.08036867355709415
332,0kujfapv9,123,74,0,728.09999999404,Experiment,6 10 6 10 8 8,9 6 9 4 9 9,48,46,26,Male,Yes,12.56,Blue to Pink,3,3,0.08036867355709415
333,0kujfapv9,124,74,1,743.800000011921,Experiment,11 6 8 11 11 11,8 12 10 8 12 10,58,60,26,Male,Yes,12.56,Blue to Pink,3,3,0.08036867355709415
334,0kujfapv9,125,74,1,1965.80000001192,Experiment,5 5 7 3 3 6,6 2 5 7 5 6,29,31,26,Male,Yes,12.56,Blue to Pink,4,4,0.08036867355709415
335,0kujfapv9,126,74,0,1272.90000000596,Experiment,6 5 1 8 5 4,8 3 8 2 4 1,29,26,26,Male,Yes,12.56,Blue to Pink,5,5,0.08036867355709415
336,0kujfapv9,127,70,1,728.399999976158,Experiment,8 7 2 5 4 2,4 1 5 2 5 7,28,24,26,Male,Yes,12.56,Blue to Pink,5,5,0.08036867355709415
337,0kujfapv9,128,70,1,1172.5,Experiment,10 6 12 12 6 8,7 9 9 11 6 6,54,48,26,Male,Yes,12.56,Blue to Pink,4,4,0.08036867355709415
338,0kujfapv9,129,74,1,1520.90000000596,Experiment,7 1 3 4 7 2,8 1 1 2 6 7,24,25,26,Male,Yes,12.56,Blue to Pink,5,5,0.08036867355709415
339,0kujfapv9,130,70,1,1199.20000001788,Experiment,11 10 10 7 7 6,12 6 5 6 12 8,51,49,26,Male,Yes,12.56,Blue to Pink,4,4,0.08036867355709415
340,0kujfapv9,131,74,1,654.59999999404,Experiment,11 8 5 6 11 7,10 12 5 6 5 11,48,49,26,Male,Yes,12.56,Blue to Pink,5,5,0.08036867355709415
341,0kujfapv9,132,70,1,1751.39999997616,Experiment,6 4 8 3 6 3,5 1 5 1 8 7,30,27,26,Male,Yes,12.56,Blue to Pink,4,4,0.08036867355709415
342,0kujfapv9,133,74,1,938.59999999404,Experiment,8 3 8 3 2 2,6 7 7 4 4 4,26,32,26,Male,Yes,12.56,Blue to Pink,3,3,0.08036867355709415
343,0kujfapv9,134,70,1,625.300000011921,Experiment,8 1 5 5 8 5,6 5 6 4 4 5,32,30,26,Male,Yes,12.56,Blue to Pink,3,3,0.08036867355709415
344,0kujfapv9,135,70,1,651.299999982119,Experiment,7 5 8 6 4 1,7 4 6 1 5 2,31,25,26,Male,Yes,12.56,Blue to Pink,6,6,0.08036867355709415
345,0kujfapv9,136,70,1,1084.59999999404,Experiment,4 7 5 9 10 3,3 7 5 8 9 4,38,36,26,Male,Yes,12.56,Blue to Pink,6,6,0.08036867355709415
346,0kujfapv9,137,70,1,803.0,Experiment,10 10 8 3 9 3,5 9 9 6 6 4,43,39,26,Male,Yes,12.56,Blue to Pink,4,4,0.08036867355709415
347,0kujfapv9,138,70,0,1620.29999998212,Experiment,4 3 7 9 7 7,3 6 6 7 9 9,37,40,26,Male,Yes,12.56,Blue to Pink,4,4,0.08036867355709415
348,0kujfapv9,139,74,1,698.699999988079,Experiment,4 5 2 6 7 4,7 6 3 2 7 8,28,33,26,Male,Yes,12.56,Blue to Pink,5,5,0.08036867355709415
349,0kujfapv9,140,74,1,683.59999999404,Experiment,5 12 5 10 8 9,5 11 7 10 9 11,49,53,26,Male,Yes,12.56,Blue to Pink,5,5,0.08036867355709415
350,0kujfapv9,141,70,1,516.0,Experiment,10 10 4 9 7 3,10 5 6 4 4 8,43,37,26,Male,Yes,12.56,Blue to Pink,5,5,0.08036867355709415
351,0kujfapv9,142,70,0,2666.19999998808,Experiment,5 10 6 12 12 10,12 8 11 8 12 5,55,56,26,Male,Yes,12.56,Blue to Pink,4,4,0.08036867355709415
352,0kujfapv9,143,70,1,2231.09999999404,Experiment,6 7 2 3 4 7,4 5 3 1 6 5,29,24,26,Male,Yes,12.56,Blue to Pink,5,5,0.08036867355709415
353,0kujfapv9,144,74,1,896.600000023842,Experiment,6 10 6 7 10 4,10 6 8 10 10 4,43,48,26,Male,Yes,12.56,Blue to Pink,4,4,0.08036867355709415
354,0kujfapv9,145,74,1,1703.90000000596,Experiment,8 1 1 4 2 8,2 8 8 6 3 3,24,30,26,Male,Yes,12.56,Blue to Pink,4,4,0.08036867355709415
355,0kujfapv9,146,70,1,1333.10000002384,Experiment,3 1 7 7 6 2,4 5 3 2 6 4,26,24,26,Male,Yes,12.56,Blue to Pink,5,5,0.08036867355709415
356,0kujfapv9,147,70,1,989.0,Experiment,5 12 10 5 11 12,8 8 11 6 11 7,55,51,26,Male,Yes,12.56,Blue to Pink,4,4,0.08036867355709415
357,0kujfapv9,148,74,1,804.09999999404,Experiment,10 9 3 6 10 5,5 7 8 9 10 7,43,46,26,Male,Yes,12.56,Blue to Pink,5,5,0.08036867355709415
358,0kujfapv9,149,74,1,1402.5,Experiment,8 6 8 11 7 9,6 12 7 8 11 7,49,51,26,Male,Yes,12.56,Blue to Pink,5,5,0.08036867355709415
359,0kujfapv9,150,70,1,845.399999976158,Experiment,6 9 7 9 6 3,10 5 6 4 6 6,40,37,26,Male,Yes,12.56,Blue to Pink,4,4,0.08036867355709415
360,0r6hsn46u,1,74,1,1090.20000000298,Training,11 3 7 12 7 2,2 11 11 11 3 5,42,43,34,Female,Yes,12.53,Blue to Pink,5,4,-0.16496084386504298
361,0r6hsn46u,2,70,0,894.60000000149,Training,11 8 8 6 1 2,10 4 6 4 9 7,36,40,34,Female,Yes,12.53,Blue to Pink,5,5,-0.16496084386504298
362,0r6hsn46u,3,70,1,734.5,Training,10 11 7 8 12 9,8 10 6 1 4 11,57,40,34,Female,Yes,12.53,Blue to Pink,6,6,-0.16496084386504298
363,0r6hsn46u,4,74,1,799.39999999851,Training,9 11 5 1 1 4,10 6 10 11 3 9,31,49,34,Female,Yes,12.53,Blue to Pink,5,5,-0.16496084386504298
364,0r6hsn46u,5,70,1,1017.10000000149,Training,6 3 11 8 4 8,1 9 1 4 4 7,40,26,34,Female,Yes,12.53,Blue to Pink,5,4,-0.16496084386504298
365,0r6hsn46u,6,74,1,786.89999999851,Training,3 8 11 1 3 2,9 5 1 6 9 9,28,39,34,Female,Yes,12.53,Blue to Pink,5,4,-0.16496084386504298
366,0r6hsn46u,7,70,1,614.0,Training,11 11 10 7 12 8,9 12 10 8 1 8,59,48,34,Female,Yes,12.53,Blue to Pink,5,5,-0.16496084386504298
367,0r6hsn46u,8,70,0,972.79999999702,Training,5 10 3 5 10 11,7 2 12 10 10 4,44,45,34,Female,Yes,12.53,Blue to Pink,4,5,-0.16496084386504298
368,0r6hsn46u,9,74,1,856.90000000596,Training,5 1 7 12 3 6,8 4 11 8 11 1,34,43,34,Female,Yes,12.53,Blue to Pink,6,4,-0.16496084386504298
369,0r6hsn46u,10,70,1,604.89999999851,Training,5 10 11 4 10 12,9 10 2 9 6 1,52,37,34,Female,Yes,12.53,Blue to Pink,5,5,-0.16496084386504298
370,0r6hsn46u,11,74,1,921.79999999702,Training,6 4 10 5 1 12,10 6 4 1 8 11,38,40,34,Female,Yes,12.53,Blue to Pink,6,6,-0.16496084386504298
371,0r6hsn46u,12,74,0,1049.10000000149,Training,1 1 9 8 12 8,7 12 9 1 5 1,39,35,34,Female,Yes,12.53,Blue to Pink,4,5,-0.16496084386504298
372,0r6hsn46u,13,74,1,1164.0,Training,5 12 12 5 1 2,12 5 12 6 2 8,37,45,34,Female,Yes,12.53,Blue to Pink,4,5,-0.16496084386504298
373,0r6hsn46u,14,74,1,828.5,Training,3 8 4 4 2 10,6 7 11 2 7 2,31,35,34,Female,Yes,12.53,Blue to Pink,5,4,-0.16496084386504298
374,0r6hsn46u,15,70,1,1166.20000000298,Training,10 5 8 12 9 9,7 10 9 6 11 5,53,48,34,Female,Yes,12.53,Blue to Pink,5,6,-0.16496084386504298
375,0r6hsn46u,16,74,1,1022.70000000298,Training,1 4 10 1 5 5,9 7 5 4 10 1,26,36,34,Female,Yes,12.53,Blue to Pink,4,6,-0.16496084386504298
376,0r6hsn46u,17,70,1,637.5,Training,11 8 3 4 10 11,12 2 2 1 9 8,47,34,34,Female,Yes,12.53,Blue to Pink,5,5,-0.16496084386504298
377,0r6hsn46u,18,70,1,644.90000000596,Training,7 7 6 5 12 9,7 9 8 2 6 11,46,43,34,Female,Yes,12.53,Blue to Pink,5,6,-0.16496084386504298
378,0r6hsn46u,19,74,1,1124.80000000447,Training,10 10 6 8 1 4,8 12 9 2 8 5,39,44,34,Female,Yes,12.53,Blue to Pink,5,5,-0.16496084386504298
379,0r6hsn46u,20,74,0,1039.79999999702,Training,7 4 6 5 5 11,4 3 10 6 7 2,38,32,34,Female,Yes,12.53,Blue to Pink,5,6,-0.16496084386504298
380,0r6hsn46u,21,74,1,782.89999999851,Training,10 4 4 9 5 2,5 10 12 1 8 10,34,46,34,Female,Yes,12.53,Blue to Pink,5,5,-0.16496084386504298
381,0r6hsn46u,22,74,1,1302.10000000149,Training,1 1 5 6 1 11,6 9 2 8 12 2,25,39,34,Female,Yes,12.53,Blue to Pink,4,5,-0.16496084386504298
382,0r6hsn46u,23,74,1,850.0,Training,8 2 7 4 2 2,6 12 1 12 5 1,25,37,34,Female,Yes,12.53,Blue to Pink,4,4,-0.16496084386504298
383,0r6hsn46u,24,70,1,593.09999999404,Training,10 12 8 7 12 4,1 1 8 5 12 3,53,30,34,Female,Yes,12.53,Blue to Pink,5,5,-0.16496084386504298
384,0r6hsn46u,25,70,1,683.80000000447,Training,11 8 7 6 12 11,9 7 1 12 6 9,55,44,34,Female,Yes,12.53,Blue to Pink,5,5,-0.16496084386504298
385,0r6hsn46u,26,74,0,964.90000000596,Training,7 1 12 4 3 7,5 8 8 1 4 5,34,31,34,Female,Yes,12.53,Blue to Pink,5,4,-0.16496084386504298
386,0r6hsn46u,27,70,1,750.5,Training,12 11 1 5 10 3,11 4 3 4 1 8,42,31,34,Female,Yes,12.53,Blue to Pink,6,5,-0.16496084386504298
387,0r6hsn46u,28,74,1,1077.30000000447,Training,4 10 4 7 8 12,12 5 12 12 9 10,45,60,34,Female,Yes,12.53,Blue to Pink,5,4,-0.16496084386504298
388,0r6hsn46u,29,74,1,941.0,Training,7 9 6 11 5 8,10 11 12 10 2 10,46,55,34,Female,Yes,12.53,Blue to Pink,6,4,-0.16496084386504298
389,0r6hsn46u,30,70,1,1043.80000000447,Training,8 9 3 6 11 10,7 7 6 6 10 8,47,44,34,Female,Yes,12.53,Blue to Pink,6,4,-0.16496084386504298
390,0r6hsn46u,1,70,1,808.69999999553,Experiment,9 7 9 6 10 8,8 5 7 9 9 10,49,48,34,Female,Yes,12.53,Blue to Pink,5,5,-0.16496084386504298
391,0r6hsn46u,2,70,0,1049.29999999702,Experiment,3 7 3 9 6 8,4 4 6 9 7 10,36,40,34,Female,Yes,12.53,Blue to Pink,5,5,-0.16496084386504298
392,0r6hsn46u,3,70,1,999.20000000298,Experiment,12 5 6 11 7 9,5 7 10 11 6 9,50,48,34,Female,Yes,12.53,Blue to Pink,6,6,-0.16496084386504298
393,0r6hsn46u,4,74,1,1105.39999999851,Experiment,2 4 3 7 4 7,1 6 7 8 1 8,27,31,34,Female,Yes,12.53,Blue to Pink,4,4,-0.16496084386504298
394,0r6hsn46u,5,74,1,1167.60000000149,Experiment,6 6 5 9 11 12,12 11 7 7 8 9,49,54,34,Female,Yes,12.53,Blue to Pink,5,5,-0.16496084386504298
395,0r6hsn46u,6,74,1,1383.5,Experiment,3 4 6 10 4 10,8 8 9 5 4 5,37,39,34,Female,Yes,12.53,Blue to Pink,4,4,-0.16496084386504298
396,0r6hsn46u,7,74,1,1029.20000000298,Experiment,11 7 7 7 9 11,7 10 11 7 11 11,52,57,34,Female,Yes,12.53,Blue to Pink,3,3,-0.16496084386504298
397,0r6hsn46u,8,70,0,1096.0,Experiment,7 8 5 2 1 2,5 8 3 3 4 7,25,30,34,Female,Yes,12.53,Blue to Pink,5,5,-0.16496084386504298
398,0r6hsn46u,9,74,1,1563.0,Experiment,3 8 6 10 9 9,8 10 5 9 8 7,45,47,34,Female,Yes,12.53,Blue to Pink,5,5,-0.16496084386504298
399,0r6hsn46u,10,70,0,1103.09999999404,Experiment,4 6 5 6 8 7,3 9 9 8 4 5,36,38,34,Female,Yes,12.53,Blue to Pink,5,5,-0.16496084386504298
400,0r6hsn46u,11,74,1,1270.89999999851,Experiment,1 4 7 8 3 8,7 6 3 5 5 8,31,34,34,Female,Yes,12.53,Blue to Pink,5,5,-0.16496084386504298
401,0r6hsn46u,12,70,0,996.29999999702,Experiment,8 9 10 10 9 8,5 9 12 9 9 12,54,56,34,Female,Yes,12.53,Blue to Pink,3,3,-0.16496084386504298
402,0r6hsn46u,13,74,1,1357.70000000298,Experiment,3 10 10 6 3 4,10 8 5 4 10 5,36,42,34,Female,Yes,12.53,Blue to Pink,4,4,-0.16496084386504298
403,0r6hsn46u,14,70,0,1311.10000000149,Experiment,4 5 2 1 8 4,5 8 3 4 3 2,24,25,34,Female,Yes,12.53,Blue to Pink,5,5,-0.16496084386504298
404,0r6hsn46u,15,70,1,1618.19999999553,Experiment,5 6 7 6 3 8,1 4 6 7 7 8,35,33,34,Female,Yes,12.53,Blue to Pink,5,5,-0.16496084386504298
405,0r6hsn46u,16,70,1,1109.39999999851,Experiment,3 5 8 8 9 7,8 5 7 5 4 10,40,39,34,Female,Yes,12.53,Blue to Pink,5,5,-0.16496084386504298
406,0r6hsn46u,17,74,0,1655.89999999851,Experiment,3 4 9 10 8 3,9 9 4 5 3 6,37,36,34,Female,Yes,12.53,Blue to Pink,5,5,-0.16496084386504298
407,0r6hsn46u,18,74,0,1476.5,Experiment,4 6 2 7 3 7,5 4 1 5 6 3,29,24,34,Female,Yes,12.53,Blue to Pink,5,5,-0.16496084386504298
408,0r6hsn46u,19,70,1,1102.89999999851,Experiment,8 4 8 2 8 5,2 3 5 5 7 7,35,29,34,Female,Yes,12.53,Blue to Pink,4,4,-0.16496084386504298
409,0r6hsn46u,20,70,0,2239.30000000447,Experiment,5 9 7 5 8 7,8 8 7 7 9 4,41,43,34,Female,Yes,12.53,Blue to Pink,4,4,-0.16496084386504298
410,0r6hsn46u,21,70,1,1426.89999999851,Experiment,10 5 4 8 8 3,5 5 10 6 3 7,38,36,34,Female,Yes,12.53,Blue to Pink,5,5,-0.16496084386504298
411,0r6hsn46u,22,74,1,952.20000000298,Experiment,4 8 10 8 5 5,10 9 5 8 8 5,40,45,34,Female,Yes,12.53,Blue to Pink,4,4,-0.16496084386504298
412,0r6hsn46u,23,74,1,1728.0,Experiment,4 1 2 5 7 5,8 2 7 5 2 4,24,28,34,Female,Yes,12.53,Blue to Pink,5,5,-0.16496084386504298
413,0r6hsn46u,24,70,1,1094.60000000149,Experiment,9 3 9 5 8 7,3 8 10 3 7 6,41,37,34,Female,Yes,12.53,Blue to Pink,5,5,-0.16496084386504298
414,0r6hsn46u,25,70,1,1481.0,Experiment,6 6 9 7 3 9,10 6 6 6 4 5,40,37,34,Female,Yes,12.53,Blue to Pink,4,4,-0.16496084386504298
415,0r6hsn46u,26,70,1,1201.60000000149,Experiment,7 10 8 3 8 8,7 7 7 10 4 6,44,41,34,Female,Yes,12.53,Blue to Pink,4,4,-0.16496084386504298
416,0r6hsn46u,27,74,1,2111.70000000298,Experiment,11 5 8 12 8 6,7 10 11 8 10 6,50,52,34,Female,Yes,12.53,Blue to Pink,5,5,-0.16496084386504298
417,0r6hsn46u,28,70,0,2273.70000000298,Experiment,4 4 1 7 8 2,6 7 2 3 4 6,26,28,34,Female,Yes,12.53,Blue to Pink,5,5,-0.16496084386504298
418,0r6hsn46u,29,70,1,2263.5,Experiment,8 6 4 6 3 6,7 8 8 2 1 1,33,27,34,Female,Yes,12.53,Blue to Pink,4,4,-0.16496084386504298
419,0r6hsn46u,30,74,1,1987.0,Experiment,5 12 6 5 12 11,10 8 7 12 10 10,51,57,34,Female,Yes,12.53,Blue to Pink,4,4,-0.16496084386504298
420,0r6hsn46u,31,70,0,1159.30000000447,Experiment,10 7 12 11 11 9,11 8 9 11 10 12,60,61,34,Female,Yes,12.53,Blue to Pink,5,5,-0.16496084386504298
421,0r6hsn46u,32,74,0,1841.09999999404,Experiment,6 3 4 7 3 7,8 8 1 3 4 1,30,25,34,Female,Yes,12.53,Blue to Pink,4,4,-0.16496084386504298
422,0r6hsn46u,33,70,0,1255.19999999553,Experiment,6 10 7 7 10 12,10 7 10 11 7 12,52,57,34,Female,Yes,12.53,Blue to Pink,4,4,-0.16496084386504298
423,0r6hsn46u,34,70,1,1474.0,Experiment,9 3 6 6 7 9,7 7 7 4 9 3,40,37,34,Female,Yes,12.53,Blue to Pink,4,4,-0.16496084386504298
424,0r6hsn46u,35,74,1,983.19999999553,Experiment,10 9 6 5 11 8,9 12 11 10 5 8,49,55,34,Female,Yes,12.53,Blue to Pink,6,6,-0.16496084386504298
425,0r6hsn46u,36,70,1,1746.80000000447,Experiment,8 8 8 5 6 10,3 10 3 10 4 9,45,39,34,Female,Yes,12.53,Blue to Pink,4,4,-0.16496084386504298
426,0r6hsn46u,37,74,0,1625.40000000596,Experiment,7 4 10 5 3 9,3 7 4 8 9 5,38,36,34,Female,Yes,12.53,Blue to Pink,6,6,-0.16496084386504298
427,0r6hsn46u,38,74,1,1420.60000000149,Experiment,4 9 7 8 3 6,6 10 3 8 7 9,37,43,34,Female,Yes,12.53,Blue to Pink,6,6,-0.16496084386504298
428,0r6hsn46u,39,74,1,1135.5,Experiment,10 3 3 10 6 5,5 8 6 9 9 5,37,42,34,Female,Yes,12.53,Blue to Pink,4,4,-0.16496084386504298
429,0r6hsn46u,40,70,1,1375.39999999851,Experiment,7 4 10 10 10 6,9 9 4 7 5 7,47,41,34,Female,Yes,12.53,Blue to Pink,4,4,-0.16496084386504298
430,0r6hsn46u,41,70,1,1288.80000000447,Experiment,6 8 7 7 11 12,7 11 6 8 8 9,51,49,34,Female,Yes,12.53,Blue to Pink,5,5,-0.16496084386504298
431,0r6hsn46u,42,74,0,1249.60000000149,Experiment,8 4 1 8 4 7,6 8 2 8 6 1,32,31,34,Female,Yes,12.53,Blue to Pink,4,4,-0.16496084386504298
432,0r6hsn46u,43,70,0,2277.10000000149,Experiment,1 8 1 8 4 2,8 3 3 6 8 2,24,30,34,Female,Yes,12.53,Blue to Pink,4,4,-0.16496084386504298
433,0r6hsn46u,44,74,1,1607.60000000149,Experiment,7 6 2 2 4 3,5 4 5 6 2 8,24,30,34,Female,Yes,12.53,Blue to Pink,5,5,-0.16496084386504298
434,0r6hsn46u,45,70,1,936.10000000149,Experiment,6 6 5 8 6 1,2 5 8 5 5 4,32,29,34,Female,Yes,12.53,Blue to Pink,4,4,-0.16496084386504298
435,0r6hsn46u,46,70,1,2169.39999999851,Experiment,7 8 6 3 10 7,6 10 10 3 4 5,41,38,34,Female,Yes,12.53,Blue to Pink,5,5,-0.16496084386504298
436,0r6hsn46u,47,74,1,1610.59999999404,Experiment,5 3 2 5 7 2,2 6 4 2 8 8,24,30,34,Female,Yes,12.53,Blue to Pink,4,4,-0.16496084386504298
437,0r6hsn46u,48,70,1,1498.80000000447,Experiment,12 8 9 10 12 10,12 10 5 11 11 11,61,60,34,Female,Yes,12.53,Blue to Pink,4,4,-0.16496084386504298
438,0r6hsn46u,49,74,1,1885.59999999404,Experiment,4 2 1 6 7 5,4 7 6 8 5 1,25,31,34,Female,Yes,12.53,Blue to Pink,6,6,-0.16496084386504298
439,0r6hsn46u,50,70,1,1018.10000000149,Experiment,7 3 10 4 9 10,6 4 5 10 8 4,43,37,34,Female,Yes,12.53,Blue to Pink,5,5,-0.16496084386504298
440,0r6hsn46u,51,70,1,980.40000000596,Experiment,9 11 12 9 10 7,7 12 5 11 8 12,58,55,34,Female,Yes,12.53,Blue to Pink,5,5,-0.16496084386504298
441,0r6hsn46u,52,74,1,1813.0,Experiment,7 11 11 9 6 9,12 6 8 12 12 9,53,59,34,Female,Yes,12.53,Blue to Pink,4,4,-0.16496084386504298
442,0r6hsn46u,53,70,1,1037.0,Experiment,10 7 7 12 8 10,9 5 12 5 9 11,54,51,34,Female,Yes,12.53,Blue to Pink,4,4,-0.16496084386504298
443,0r6hsn46u,54,70,0,3420.40000000596,Experiment,5 2 6 4 3 4,6 1 7 3 7 2,24,26,34,Female,Yes,12.53,Blue to Pink,5,5,-0.16496084386504298
444,0r6hsn46u,55,74,1,2610.20000000298,Experiment,7 8 6 3 7 5,9 6 4 9 8 5,36,41,34,Female,Yes,12.53,Blue to Pink,5,5,-0.16496084386504298
445,0r6hsn46u,56,74,1,1801.0,Experiment,6 1 4 5 5 6,3 8 5 8 5 1,27,30,34,Female,Yes,12.53,Blue to Pink,4,4,-0.16496084386504298
446,0r6hsn46u,57,74,1,1616.90000000596,Experiment,5 6 12 12 6 8,7 7 11 10 6 10,49,51,34,Female,Yes,12.53,Blue to Pink,4,4,-0.16496084386504298
447,0r6hsn46u,58,74,1,1030.0,Experiment,11 10 5 12 8 11,11 12 7 10 9 10,57,59,34,Female,Yes,12.53,Blue to Pink,5,5,-0.16496084386504298
448,0r6hsn46u,59,74,1,1065.0,Experiment,5 6 8 9 11 9,9 6 12 8 6 11,48,52,34,Female,Yes,12.53,Blue to Pink,5,5,-0.16496084386504298
449,0r6hsn46u,60,70,1,1918.39999999851,Experiment,9 7 8 5 10 7,6 9 10 10 5 3,46,43,34,Female,Yes,12.53,Blue to Pink,5,5,-0.16496084386504298
450,0r6hsn46u,61,70,1,870.20000000298,Experiment,6 8 8 5 4 6,7 6 1 7 8 7,37,36,34,Female,Yes,12.53,Blue to Pink,4,4,-0.16496084386504298
451,0r6hsn46u,62,70,1,1926.69999999553,Experiment,10 9 7 11 10 5,6 9 10 12 7 7,52,51,34,Female,Yes,12.53,Blue to Pink,5,5,-0.16496084386504298
452,0r6hsn46u,63,70,0,1681.59999999404,Experiment,4 7 3 6 9 7,6 9 9 4 3 10,36,41,34,Female,Yes,12.53,Blue to Pink,5,5,-0.16496084386504298
453,0r6hsn46u,64,70,1,1571.40000000596,Experiment,10 12 6 8 10 12,12 9 9 5 12 10,58,57,34,Female,Yes,12.53,Blue to Pink,4,4,-0.16496084386504298
454,0r6hsn46u,65,74,1,1200.39999999851,Experiment,6 4 4 9 5 8,6 4 7 10 8 7,36,42,34,Female,Yes,12.53,Blue to Pink,5,5,-0.16496084386504298
455,0r6hsn46u,66,74,1,1982.70000000298,Experiment,11 6 9 5 9 8,12 11 11 5 6 8,48,53,34,Female,Yes,12.53,Blue to Pink,5,5,-0.16496084386504298
456,0r6hsn46u,67,74,0,2203.0,Experiment,8 5 11 12 12 8,12 6 5 10 10 12,56,55,34,Female,Yes,12.53,Blue to Pink,4,4,-0.16496084386504298
457,0r6hsn46u,68,70,1,1551.70000000298,Experiment,1 6 5 3 7 5,6 1 8 1 4 5,27,25,34,Female,Yes,12.53,Blue to Pink,5,5,-0.16496084386504298
458,0r6hsn46u,69,74,1,2603.39999999851,Experiment,5 6 11 9 9 9,11 8 11 9 8 5,49,52,34,Female,Yes,12.53,Blue to Pink,4,4,-0.16496084386504298
459,0r6hsn46u,70,74,1,1604.79999999702,Experiment,9 9 10 4 6 3,6 3 9 10 8 9,41,45,34,Female,Yes,12.53,Blue to Pink,5,5,-0.16496084386504298
460,0r6hsn46u,71,70,0,4151.29999999702,Experiment,2 5 5 5 1 7,4 5 7 7 1 4,25,28,34,Female,Yes,12.53,Blue to Pink,4,4,-0.16496084386504298
461,0r6hsn46u,72,74,1,2288.69999999553,Experiment,6 7 2 3 6 3,4 2 5 8 8 4,27,31,34,Female,Yes,12.53,Blue to Pink,4,4,-0.16496084386504298
462,0r6hsn46u,73,70,0,2131.5,Experiment,9 9 9 8 12 6,9 10 12 10 5 10,53,56,34,Female,Yes,12.53,Blue to Pink,4,4,-0.16496084386504298
463,0r6hsn46u,74,70,1,1561.30000000447,Experiment,9 8 5 5 9 9,9 7 9 5 5 5,45,40,34,Female,Yes,12.53,Blue to Pink,3,3,-0.16496084386504298
464,0r6hsn46u,75,70,1,1386.79999999702,Experiment,11 10 8 8 8 11,6 12 7 6 12 7,56,50,34,Female,Yes,12.53,Blue to Pink,3,3,-0.16496084386504298
465,0r6hsn46u,76,70,1,2360.60000000149,Experiment,4 9 9 5 9 7,9 3 7 8 9 3,43,39,34,Female,Yes,12.53,Blue to Pink,4,4,-0.16496084386504298
466,0r6hsn46u,77,70,0,1206.90000000596,Experiment,8 7 10 8 6 9,11 7 5 10 6 11,48,50,34,Female,Yes,12.53,Blue to Pink,5,5,-0.16496084386504298
467,0r6hsn46u,78,70,1,2071.89999999851,Experiment,4 8 2 7 7 1,1 2 4 5 5 7,29,24,34,Female,Yes,12.53,Blue to Pink,5,5,-0.16496084386504298
468,0r6hsn46u,79,74,1,2091.79999999702,Experiment,3 4 8 8 1 2,1 8 5 6 5 4,26,29,34,Female,Yes,12.53,Blue to Pink,5,5,-0.16496084386504298
469,0r6hsn46u,80,74,0,1456.10000000149,Experiment,7 3 7 7 2 5,6 7 1 5 7 1,31,27,34,Female,Yes,12.53,Blue to Pink,4,4,-0.16496084386504298
470,0r6hsn46u,81,70,0,769.19999999553,Experiment,11 9 5 11 5 10,6 11 7 11 9 11,51,55,34,Female,Yes,12.53,Blue to Pink,4,4,-0.16496084386504298
471,0r6hsn46u,82,74,1,3604.90000000596,Experiment,2 1 6 3 5 7,1 2 3 5 7 8,24,26,34,Female,Yes,12.53,Blue to Pink,6,6,-0.16496084386504298
472,0r6hsn46u,83,70,1,1062.20000000298,Experiment,6 9 6 12 8 11,8 5 5 11 9 10,52,48,34,Female,Yes,12.53,Blue to Pink,5,5,-0.16496084386504298
473,0r6hsn46u,84,70,1,881.60000000149,Experiment,8 10 12 11 11 5,8 6 5 12 11 11,57,53,34,Female,Yes,12.53,Blue to Pink,5,5,-0.16496084386504298
474,0r6hsn46u,85,74,0,1228.60000000149,Experiment,5 7 8 6 7 4,3 7 5 8 7 6,37,36,34,Female,Yes,12.53,Blue to Pink,5,5,-0.16496084386504298
475,0r6hsn46u,86,74,1,1701.60000000149,Experiment,3 7 5 7 3 3,3 7 7 7 3 6,28,33,34,Female,Yes,12.53,Blue to Pink,3,3,-0.16496084386504298
476,0r6hsn46u,87,74,1,1186.5,Experiment,8 6 10 11 9 8,11 6 11 12 7 10,52,57,34,Female,Yes,12.53,Blue to Pink,5,5,-0.16496084386504298
477,0r6hsn46u,88,74,1,1107.70000000298,Experiment,10 7 9 11 7 9,10 6 11 9 10 9,53,55,34,Female,Yes,12.53,Blue to Pink,4,4,-0.16496084386504298
478,0r6hsn46u,89,70,1,2512.0,Experiment,6 12 12 8 12 10,9 8 8 12 12 6,60,55,34,Female,Yes,12.53,Blue to Pink,4,4,-0.16496084386504298
479,0r6hsn46u,90,74,1,4950.80000000447,Experiment,10 10 6 11 7 7,12 8 9 8 12 6,51,55,34,Female,Yes,12.53,Blue to Pink,4,4,-0.16496084386504298
480,0r6hsn46u,91,70,1,1156.70000000298,Experiment,8 6 7 11 10 11,5 9 9 10 8 7,53,48,34,Female,Yes,12.53,Blue to Pink,5,5,-0.16496084386504298
481,0r6hsn46u,92,70,1,1389.19999999553,Experiment,10 6 8 8 5 5,9 10 3 7 7 3,42,39,34,Female,Yes,12.53,Blue to Pink,4,4,-0.16496084386504298
482,0r6hsn46u,93,70,1,1784.79999999702,Experiment,9 4 5 9 10 8,6 9 8 6 7 4,45,40,34,Female,Yes,12.53,Blue to Pink,5,5,-0.16496084386504298
483,0r6hsn46u,94,70,1,1248.59999999404,Experiment,12 8 12 6 6 10,6 9 11 9 7 6,54,48,34,Female,Yes,12.53,Blue to Pink,4,4,-0.16496084386504298
484,0r6hsn46u,95,70,1,2456.79999999702,Experiment,6 8 10 10 4 4,9 5 4 7 7 4,42,36,34,Female,Yes,12.53,Blue to Pink,4,4,-0.16496084386504298
485,0r6hsn46u,96,74,1,1224.59999999404,Experiment,12 8 12 6 5 5,6 10 7 12 7 12,48,54,34,Female,Yes,12.53,Blue to Pink,4,4,-0.16496084386504298
486,0r6hsn46u,97,74,1,1462.70000000298,Experiment,6 8 3 2 6 3,7 6 8 6 3 3,28,33,34,Female,Yes,12.53,Blue to Pink,4,4,-0.16496084386504298
487,0r6hsn46u,98,70,1,1280.10000000149,Experiment,4 7 3 2 8 3,4 4 3 5 7 2,27,25,34,Female,Yes,12.53,Blue to Pink,5,5,-0.16496084386504298
488,0r6hsn46u,99,70,1,2431.20000000298,Experiment,5 4 7 1 4 7,3 4 2 4 4 8,28,25,34,Female,Yes,12.53,Blue to Pink,4,4,-0.16496084386504298
489,0r6hsn46u,100,70,0,2658.69999999553,Experiment,6 5 4 6 5 4,8 5 8 5 5 1,30,32,34,Female,Yes,12.53,Blue to Pink,3,3,-0.16496084386504298
490,0r6hsn46u,101,70,1,1393.09999999404,Experiment,9 12 11 12 6 5,12 10 6 8 7 6,55,49,34,Female,Yes,12.53,Blue to Pink,5,5,-0.16496084386504298
491,0r6hsn46u,102,74,1,2061.30000000447,Experiment,5 4 8 2 4 8,4 8 2 8 6 8,31,36,34,Female,Yes,12.53,Blue to Pink,4,4,-0.16496084386504298
492,0r6hsn46u,103,70,0,2033.80000000447,Experiment,5 6 6 4 9 9,3 8 10 10 3 9,39,43,34,Female,Yes,12.53,Blue to Pink,4,4,-0.16496084386504298
493,0r6hsn46u,104,70,1,2381.0,Experiment,2 6 8 7 2 5,8 4 2 6 5 4,30,29,34,Female,Yes,12.53,Blue to Pink,5,5,-0.16496084386504298
494,0r6hsn46u,105,74,1,870.60000000149,Experiment,7 6 8 11 5 11,10 11 5 12 6 5,48,49,34,Female,Yes,12.53,Blue to Pink,5,5,-0.16496084386504298
495,0r6hsn46u,106,74,1,1800.60000000149,Experiment,11 9 11 6 7 8,9 7 10 11 8 8,52,53,34,Female,Yes,12.53,Blue to Pink,5,5,-0.16496084386504298
496,0r6hsn46u,107,70,1,1022.5,Experiment,4 8 6 10 10 8,10 7 10 7 3 8,46,45,34,Female,Yes,12.53,Blue to Pink,4,4,-0.16496084386504298
497,0r6hsn46u,108,74,1,1378.0,Experiment,10 5 5 4 10 4,6 8 9 6 9 6,38,44,34,Female,Yes,12.53,Blue to Pink,3,3,-0.16496084386504298
498,0r6hsn46u,109,74,1,1826.89999999851,Experiment,5 12 5 7 12 8,10 7 11 7 8 11,49,54,34,Female,Yes,12.53,Blue to Pink,4,4,-0.16496084386504298
499,0r6hsn46u,110,70,1,2099.59999999404,Experiment,4 7 4 7 6 4,8 2 3 3 2 8,32,26,34,Female,Yes,12.53,Blue to Pink,3,3,-0.16496084386504298
500,0r6hsn46u,111,74,1,1399.29999999702,Experiment,10 5 12 5 8 9,11 7 11 5 9 10,49,53,34,Female,Yes,12.53,Blue to Pink,5,5,-0.16496084386504298
501,0r6hsn46u,112,70,1,1587.0,Experiment,5 7 8 2 1 8,8 4 6 3 2 2,31,25,34,Female,Yes,12.53,Blue to Pink,5,5,-0.16496084386504298
502,0r6hsn46u,113,74,0,2738.5,Experiment,9 12 11 6 6 10,8 12 9 6 8 10,54,53,34,Female,Yes,12.53,Blue to Pink,5,5,-0.16496084386504298
503,0r6hsn46u,114,70,1,2007.79999999702,Experiment,8 10 10 4 10 6,7 10 10 4 6 6,48,43,34,Female,Yes,12.53,Blue to Pink,4,4,-0.16496084386504298
504,0r6hsn46u,115,74,1,1919.20000000298,Experiment,9 9 6 4 9 9,8 6 10 8 6 10,46,48,34,Female,Yes,12.53,Blue to Pink,3,3,-0.16496084386504298
505,0r6hsn46u,116,70,0,2901.89999999851,Experiment,6 8 11 11 8 7,11 12 10 5 5 12,51,55,34,Female,Yes,12.53,Blue to Pink,4,4,-0.16496084386504298
506,0r6hsn46u,117,70,1,1790.5,Experiment,9 9 5 11 7 10,9 5 5 8 10 12,51,49,34,Female,Yes,12.53,Blue to Pink,5,5,-0.16496084386504298
507,0r6hsn46u,118,70,1,1284.39999999851,Experiment,10 6 7 8 8 10,3 9 10 9 8 9,49,48,34,Female,Yes,12.53,Blue to Pink,4,4,-0.16496084386504298
508,0r6hsn46u,119,70,1,1325.70000000298,Experiment,5 1 6 6 7 3,8 2 6 3 5 3,28,27,34,Female,Yes,12.53,Blue to Pink,5,5,-0.16496084386504298
509,0r6hsn46u,120,70,1,1872.60000000149,Experiment,6 5 6 7 2 5,3 5 7 3 6 5,31,29,34,Female,Yes,12.53,Blue to Pink,4,4,-0.16496084386504298
510,0r6hsn46u,121,74,1,1255.80000000447,Experiment,7 4 2 7 7 7,4 4 8 6 8 6,34,36,34,Female,Yes,12.53,Blue to Pink,3,3,-0.16496084386504298
511,0r6hsn46u,122,70,1,1099.89999999851,Experiment,7 3 6 5 7 1,4 5 6 8 1 1,29,25,34,Female,Yes,12.53,Blue to Pink,5,5,-0.16496084386504298
512,0r6hsn46u,123,70,1,2545.10000000149,Experiment,8 6 3 1 6 2,8 3 3 5 1 4,26,24,34,Female,Yes,12.53,Blue to Pink,5,5,-0.16496084386504298
513,0r6hsn46u,124,70,0,1212.70000000298,Experiment,6 4 10 3 6 9,8 6 8 9 5 4,38,40,34,Female,Yes,12.53,Blue to Pink,5,5,-0.16496084386504298
514,0r6hsn46u,125,74,0,3513.10000000149,Experiment,10 4 7 8 4 9,6 6 8 10 4 7,42,41,34,Female,Yes,12.53,Blue to Pink,5,5,-0.16496084386504298
515,0r6hsn46u,126,70,0,1907.90000000596,Experiment,6 7 5 12 12 8,5 12 9 9 10 8,50,53,34,Female,Yes,12.53,Blue to Pink,5,5,-0.16496084386504298
516,0r6hsn46u,127,70,1,3855.39999999851,Experiment,8 5 4 2 7 2,4 5 6 7 1 1,28,24,34,Female,Yes,12.53,Blue to Pink,5,5,-0.16496084386504298
517,0r6hsn46u,128,74,1,3198.0,Experiment,8 7 10 3 3 6,7 8 5 3 9 7,37,39,34,Female,Yes,12.53,Blue to Pink,5,5,-0.16496084386504298
518,0r6hsn46u,129,70,1,3206.40000000596,Experiment,7 4 7 6 1 8,8 7 7 4 1 2,33,29,34,Female,Yes,12.53,Blue to Pink,5,5,-0.16496084386504298
519,0r6hsn46u,130,70,1,4562.39999999851,Experiment,5 4 7 4 6 3,5 4 3 2 7 7,29,28,34,Female,Yes,12.53,Blue to Pink,5,5,-0.16496084386504298
520,0r6hsn46u,131,70,1,2587.39999999851,Experiment,8 7 2 1 1 6,4 7 2 3 1 7,25,24,34,Female,Yes,12.53,Blue to Pink,5,5,-0.16496084386504298
521,0r6hsn46u,132,74,1,3037.0,Experiment,6 3 9 7 7 4,6 10 4 4 7 9,36,40,34,Female,Yes,12.53,Blue to Pink,5,5,-0.16496084386504298
522,0r6hsn46u,133,74,1,2357.0,Experiment,4 7 4 3 10 9,5 7 5 6 10 9,37,42,34,Female,Yes,12.53,Blue to Pink,5,5,-0.16496084386504298
523,0r6hsn46u,134,70,1,2018.20000000298,Experiment,7 12 7 6 9 8,6 8 12 9 8 5,49,48,34,Female,Yes,12.53,Blue to Pink,5,5,-0.16496084386504298
524,0r6hsn46u,135,74,1,1388.29999999702,Experiment,6 5 7 4 9 9,6 8 6 7 9 5,40,41,34,Female,Yes,12.53,Blue to Pink,5,5,-0.16496084386504298
525,0r6hsn46u,136,70,0,1213.89999999851,Experiment,8 8 8 12 7 6,5 11 9 8 11 8,49,52,34,Female,Yes,12.53,Blue to Pink,4,4,-0.16496084386504298
526,0r6hsn46u,137,74,1,1107.79999999702,Experiment,6 3 6 10 7 4,7 10 5 4 6 5,36,37,34,Female,Yes,12.53,Blue to Pink,5,5,-0.16496084386504298
527,0r6hsn46u,138,70,0,1369.29999999702,Experiment,10 8 9 9 10 5,12 12 9 5 7 9,51,54,34,Female,Yes,12.53,Blue to Pink,4,4,-0.16496084386504298
528,0r6hsn46u,139,70,1,2109.39999999851,Experiment,7 10 4 6 6 10,8 5 9 8 5 4,43,39,34,Female,Yes,12.53,Blue to Pink,4,4,-0.16496084386504298
529,0r6hsn46u,140,70,1,2023.70000000298,Experiment,10 5 7 10 12 6,7 12 8 9 5 7,50,48,34,Female,Yes,12.53,Blue to Pink,5,5,-0.16496084386504298
530,0r6hsn46u,141,70,0,1326.79999999702,Experiment,1 5 8 5 7 1,6 3 3 8 6 4,27,30,34,Female,Yes,12.53,Blue to Pink,4,4,-0.16496084386504298
531,0r6hsn46u,142,74,0,941.89999999851,Experiment,7 10 10 5 3 7,8 8 3 6 7 7,42,39,34,Female,Yes,12.53,Blue to Pink,4,4,-0.16496084386504298
532,0r6hsn46u,143,70,1,1327.39999999851,Experiment,10 12 8 8 12 10,11 11 6 11 11 8,60,58,34,Female,Yes,12.53,Blue to Pink,3,3,-0.16496084386504298
533,0r6hsn46u,144,74,0,2531.10000000149,Experiment,8 2 4 6 6 8,8 8 6 5 1 5,34,33,34,Female,Yes,12.53,Blue to Pink,4,4,-0.16496084386504298
534,0r6hsn46u,145,74,0,2157.0,Experiment,4 10 9 6 5 5,6 7 9 4 6 5,39,37,34,Female,Yes,12.53,Blue to Pink,5,5,-0.16496084386504298
535,0r6hsn46u,146,74,1,1538.80000000447,Experiment,8 8 2 4 2 1,7 3 3 2 6 6,25,27,34,Female,Yes,12.53,Blue to Pink,4,4,-0.16496084386504298
536,0r6hsn46u,147,70,0,1227.80000000447,Experiment,6 8 7 7 8 6,10 10 3 7 7 7,42,44,34,Female,Yes,12.53,Blue to Pink,3,3,-0.16496084386504298
537,0r6hsn46u,148,70,0,1105.39999999851,Experiment,6 11 7 6 8 10,10 12 6 9 9 8,48,54,34,Female,Yes,12.53,Blue to Pink,5,5,-0.16496084386504298
538,0r6hsn46u,149,74,1,1314.89999999851,Experiment,10 10 4 8 3 8,6 10 3 9 10 6,43,44,34,Female,Yes,12.53,Blue to Pink,4,4,-0.16496084386504298
539,0r6hsn46u,150,74,1,4698.30000000447,Experiment,2 4 6 5 7 4,3 7 8 2 7 6,28,33,34,Female,Yes,12.53,Blue to Pink,5,5,-0.16496084386504298
540,1jf7xlxkq,1,70,1,776.599999964237,Training,7 5 2 10 1 12,4 3 1 5 3 1,37,17,23,Female,Yes,12.48,Blue to Pink,6,4,0.14967522350478027
541,1jf7xlxkq,2,74,1,587.599999964237,Training,11 4 5 5 10 2,7 6 6 12 8 12,37,51,23,Female,Yes,12.48,Blue to Pink,5,4,0.14967522350478027
542,1jf7xlxkq,3,74,0,572.100000023842,Training,4 10 6 7 10 3,2 5 11 3 7 11,40,39,23,Female,Yes,12.48,Blue to Pink,5,5,0.14967522350478027
543,1jf7xlxkq,4,70,0,762.600000023842,Training,9 5 5 6 6 1,11 12 5 4 9 1,32,42,23,Female,Yes,12.48,Blue to Pink,4,6,0.14967522350478027
544,1jf7xlxkq,5,74,1,1270.5,Training,7 9 9 3 1 3,8 12 6 6 2 2,32,36,23,Female,Yes,12.48,Blue to Pink,4,4,0.14967522350478027
545,1jf7xlxkq,6,74,1,1051.90000003576,Training,4 7 1 6 1 2,8 1 6 9 6 7,21,37,23,Female,Yes,12.48,Blue to Pink,5,5,0.14967522350478027
546,1jf7xlxkq,7,70,1,934.800000011921,Training,11 8 2 5 8 12,8 8 9 4 3 2,46,34,23,Female,Yes,12.48,Blue to Pink,5,5,0.14967522350478027
547,1jf7xlxkq,8,74,1,753.900000035763,Training,12 4 10 8 1 5,4 12 10 7 1 11,40,45,23,Female,Yes,12.48,Blue to Pink,6,6,0.14967522350478027
548,1jf7xlxkq,9,74,1,503.900000035763,Training,1 1 9 1 4 7,4 2 8 4 7 11,23,36,23,Female,Yes,12.48,Blue to Pink,4,5,0.14967522350478027
549,1jf7xlxkq,10,70,1,489.699999988079,Training,12 10 1 7 2 6,10 3 3 1 9 3,38,29,23,Female,Yes,12.48,Blue to Pink,6,4,0.14967522350478027
550,1jf7xlxkq,11,70,1,588.899999976158,Training,3 10 10 10 9 8,10 2 8 10 11 4,50,45,23,Female,Yes,12.48,Blue to Pink,4,5,0.14967522350478027
551,1jf7xlxkq,12,74,1,567.400000035763,Training,2 1 6 10 5 3,11 12 5 4 10 7,27,49,23,Female,Yes,12.48,Blue to Pink,6,6,0.14967522350478027
552,1jf7xlxkq,13,70,1,1443.69999998808,Training,5 6 2 2 1 11,2 6 5 4 3 2,27,22,23,Female,Yes,12.48,Blue to Pink,5,5,0.14967522350478027
553,1jf7xlxkq,14,74,1,496.300000011921,Training,1 12 9 1 10 6,10 11 3 12 10 6,39,52,23,Female,Yes,12.48,Blue to Pink,5,5,0.14967522350478027
554,1jf7xlxkq,15,70,1,1013.89999997616,Training,8 2 10 6 10 5,6 11 6 5 3 6,41,37,23,Female,Yes,12.48,Blue to Pink,5,4,0.14967522350478027
555,1jf7xlxkq,16,74,1,1150.60000002384,Training,9 1 12 3 5 1,11 3 7 7 11 4,31,43,23,Female,Yes,12.48,Blue to Pink,5,4,0.14967522350478027
556,1jf7xlxkq,17,74,0,1071.40000003576,Training,6 12 6 10 5 11,10 9 2 9 2 6,50,38,23,Female,Yes,12.48,Blue to Pink,5,4,0.14967522350478027
557,1jf7xlxkq,18,74,1,624.300000011921,Training,8 4 4 8 5 6,10 11 12 1 2 4,35,40,23,Female,Yes,12.48,Blue to Pink,4,6,0.14967522350478027
558,1jf7xlxkq,19,74,1,635.900000035763,Training,1 5 9 1 1 4,5 4 5 1 6 10,21,31,23,Female,Yes,12.48,Blue to Pink,4,5,0.14967522350478027
559,1jf7xlxkq,20,70,0,625.599999964237,Training,9 11 1 2 12 9,12 8 6 10 6 7,44,49,23,Female,Yes,12.48,Blue to Pink,5,5,0.14967522350478027
560,1jf7xlxkq,21,70,1,557.199999988079,Training,11 4 10 2 1 10,1 7 3 10 10 3,38,34,23,Female,Yes,12.48,Blue to Pink,5,4,0.14967522350478027
561,1jf7xlxkq,22,74,1,470.199999988079,Training,1 5 4 1 2 3,2 9 1 10 2 10,16,34,23,Female,Yes,12.48,Blue to Pink,5,4,0.14967522350478027
562,1jf7xlxkq,23,74,1,539.599999964237,Training,2 2 10 2 6 5,4 11 12 5 12 9,27,53,23,Female,Yes,12.48,Blue to Pink,4,5,0.14967522350478027
563,1jf7xlxkq,24,74,1,743.199999988079,Training,4 6 3 5 4 6,9 2 12 9 12 4,28,48,23,Female,Yes,12.48,Blue to Pink,4,4,0.14967522350478027
564,1jf7xlxkq,25,70,1,455.700000047684,Training,11 10 8 4 11 9,8 4 5 5 5 10,53,37,23,Female,Yes,12.48,Blue to Pink,5,4,0.14967522350478027
565,1jf7xlxkq,26,70,1,464.400000035763,Training,11 5 3 12 12 4,3 12 4 4 4 4,47,31,23,Female,Yes,12.48,Blue to Pink,5,3,0.14967522350478027
566,1jf7xlxkq,27,70,1,760.300000011921,Training,9 9 11 7 3 7,2 11 4 3 12 2,46,34,23,Female,Yes,12.48,Blue to Pink,4,5,0.14967522350478027
567,1jf7xlxkq,28,70,1,438.600000023842,Training,8 3 1 12 3 10,6 1 1 10 2 9,37,29,23,Female,Yes,12.48,Blue to Pink,5,5,0.14967522350478027
568,1jf7xlxkq,29,70,0,475.0,Training,1 11 8 8 3 2,3 4 7 11 3 8,33,36,23,Female,Yes,12.48,Blue to Pink,5,5,0.14967522350478027
569,1jf7xlxkq,30,70,1,579.699999988079,Training,4 4 10 1 11 5,7 12 3 2 4 2,35,30,23,Female,Yes,12.48,Blue to Pink,5,5,0.14967522350478027
570,1jf7xlxkq,1,74,0,533.399999976158,Experiment,10 3 6 6 10 9,10 8 8 3 10 4,44,43,23,Female,Yes,12.48,Blue to Pink,4,4,0.14967522350478027
571,1jf7xlxkq,2,70,1,776.300000011921,Experiment,4 3 9 5 7 10,8 3 4 5 9 7,38,36,23,Female,Yes,12.48,Blue to Pink,6,6,0.14967522350478027
572,1jf7xlxkq,3,74,0,710.800000011921,Experiment,8 6 11 10 11 7,8 10 9 5 9 7,53,48,23,Female,Yes,12.48,Blue to Pink,5,5,0.14967522350478027
573,1jf7xlxkq,4,70,1,903.600000023842,Experiment,5 9 8 5 10 8,5 8 10 8 4 5,45,40,23,Female,Yes,12.48,Blue to Pink,4,4,0.14967522350478027
574,1jf7xlxkq,5,70,1,703.900000035763,Experiment,10 6 7 3 7 8,10 3 10 4 5 6,41,38,23,Female,Yes,12.48,Blue to Pink,5,5,0.14967522350478027
575,1jf7xlxkq,6,74,1,786.899999976158,Experiment,5 10 10 12 12 6,11 8 5 12 12 8,55,56,23,Female,Yes,12.48,Blue to Pink,4,4,0.14967522350478027
576,1jf7xlxkq,7,74,0,925.400000035763,Experiment,8 8 5 5 1 5,4 5 4 5 6 6,32,30,23,Female,Yes,12.48,Blue to Pink,3,3,0.14967522350478027
577,1jf7xlxkq,8,74,0,1111.19999998808,Experiment,6 12 10 7 11 11,10 11 6 9 8 8,57,52,23,Female,Yes,12.48,Blue to Pink,5,5,0.14967522350478027
578,1jf7xlxkq,9,74,1,840.900000035763,Experiment,7 5 7 9 9 4,6 4 7 10 10 10,41,47,23,Female,Yes,12.48,Blue to Pink,4,4,0.14967522350478027
579,1jf7xlxkq,10,70,1,1081.60000002384,Experiment,3 6 3 7 7 7,3 3 5 3 7 7,33,28,23,Female,Yes,12.48,Blue to Pink,3,3,0.14967522350478027
580,1jf7xlxkq,11,70,1,1260.10000002384,Experiment,8 10 5 8 6 5,3 3 10 9 7 7,42,39,23,Female,Yes,12.48,Blue to Pink,4,4,0.14967522350478027
581,1jf7xlxkq,12,70,1,1097.10000002384,Experiment,12 5 10 6 11 5,6 11 7 11 8 5,49,48,23,Female,Yes,12.48,Blue to Pink,5,5,0.14967522350478027
582,1jf7xlxkq,13,70,1,1516.19999998808,Experiment,1 4 6 8 7 5,4 2 6 1 7 5,31,25,23,Female,Yes,12.48,Blue to Pink,6,6,0.14967522350478027
583,1jf7xlxkq,14,74,0,949.800000011921,Experiment,9 12 5 9 12 9,8 9 10 10 8 9,56,54,23,Female,Yes,12.48,Blue to Pink,3,3,0.14967522350478027
584,1jf7xlxkq,15,74,1,1289.80000001192,Experiment,12 12 5 8 6 6,6 7 7 10 10 11,49,51,23,Female,Yes,12.48,Blue to Pink,4,4,0.14967522350478027
585,1jf7xlxkq,16,70,1,1039.0,Experiment,7 7 4 4 1 5,4 4 4 8 3 2,28,25,23,Female,Yes,12.48,Blue to Pink,4,4,0.14967522350478027
586,1jf7xlxkq,17,70,0,1320.0,Experiment,7 4 7 7 6 10,8 3 8 8 10 7,41,44,23,Female,Yes,12.48,Blue to Pink,4,4,0.14967522350478027
587,1jf7xlxkq,18,74,0,827.599999964237,Experiment,8 8 5 10 7 9,8 3 10 6 9 9,47,45,23,Female,Yes,12.48,Blue to Pink,5,5,0.14967522350478027
588,1jf7xlxkq,19,74,1,761.699999988079,Experiment,7 8 5 3 6 7,9 5 9 6 8 4,36,41,23,Female,Yes,12.48,Blue to Pink,5,5,0.14967522350478027
589,1jf7xlxkq,20,70,1,513.900000035763,Experiment,6 3 2 1 8 6,3 1 3 5 4 8,26,24,23,Female,Yes,12.48,Blue to Pink,5,5,0.14967522350478027
590,1jf7xlxkq,21,74,1,574.900000035763,Experiment,4 6 9 10 9 3,8 9 10 9 6 3,41,45,23,Female,Yes,12.48,Blue to Pink,5,5,0.14967522350478027
591,1jf7xlxkq,22,70,1,599.699999988079,Experiment,11 8 8 11 5 9,12 6 7 8 8 8,52,49,23,Female,Yes,12.48,Blue to Pink,4,4,0.14967522350478027
592,1jf7xlxkq,23,74,1,532.5,Experiment,9 6 7 3 7 4,6 4 3 9 10 9,36,41,23,Female,Yes,12.48,Blue to Pink,5,5,0.14967522350478027
593,1jf7xlxkq,24,74,0,1111.0,Experiment,6 9 11 9 10 10,9 7 7 11 10 9,55,53,23,Female,Yes,12.48,Blue to Pink,4,4,0.14967522350478027
594,1jf7xlxkq,25,74,1,648.600000023842,Experiment,3 4 7 8 1 8,6 7 5 8 5 3,31,34,23,Female,Yes,12.48,Blue to Pink,5,5,0.14967522350478027
595,1jf7xlxkq,26,74,1,1123.19999998808,Experiment,6 10 6 6 5 4,9 3 7 6 9 6,37,40,23,Female,Yes,12.48,Blue to Pink,4,4,0.14967522350478027
596,1jf7xlxkq,27,74,0,883.099999964237,Experiment,4 7 7 9 8 8,5 9 8 5 7 7,43,41,23,Female,Yes,12.48,Blue to Pink,4,4,0.14967522350478027
597,1jf7xlxkq,28,74,1,1266.69999998808,Experiment,8 4 5 8 4 2,8 2 6 8 8 4,31,36,23,Female,Yes,12.48,Blue to Pink,4,4,0.14967522350478027
598,1jf7xlxkq,29,74,1,1148.0,Experiment,7 1 4 2 3 7,1 2 6 1 8 7,24,25,23,Female,Yes,12.48,Blue to Pink,5,5,0.14967522350478027
599,1jf7xlxkq,30,70,1,557.899999976158,Experiment,10 6 10 8 4 10,10 6 10 6 4 7,48,43,23,Female,Yes,12.48,Blue to Pink,4,4,0.14967522350478027
600,1jf7xlxkq,31,70,1,801.100000023842,Experiment,8 3 6 2 7 7,5 7 2 4 6 4,33,28,23,Female,Yes,12.48,Blue to Pink,5,5,0.14967522350478027
601,1jf7xlxkq,32,74,1,525.5,Experiment,8 9 12 8 10 6,6 11 6 12 9 10,53,54,23,Female,Yes,12.48,Blue to Pink,5,5,0.14967522350478027
602,1jf7xlxkq,33,74,1,565.199999988079,Experiment,8 8 7 6 3 7,5 3 10 7 7 10,39,42,23,Female,Yes,12.48,Blue to Pink,4,4,0.14967522350478027
603,1jf7xlxkq,34,74,0,681.5,Experiment,10 8 10 6 8 7,9 8 3 9 10 9,49,48,23,Female,Yes,12.48,Blue to Pink,4,4,0.14967522350478027
604,1jf7xlxkq,35,70,0,654.600000023842,Experiment,2 7 7 7 7 4,4 8 6 4 8 6,34,36,23,Female,Yes,12.48,Blue to Pink,3,3,0.14967522350478027
605,1jf7xlxkq,36,74,1,540.699999988079,Experiment,5 4 10 4 10 5,6 6 9 8 6 9,38,44,23,Female,Yes,12.48,Blue to Pink,3,3,0.14967522350478027
606,1jf7xlxkq,37,70,1,577.699999988079,Experiment,5 9 4 9 8 10,8 6 6 9 4 7,45,40,23,Female,Yes,12.48,Blue to Pink,5,5,0.14967522350478027
607,1jf7xlxkq,38,70,1,1103.10000002384,Experiment,7 6 12 12 10 7,5 5 6 12 12 8,54,48,23,Female,Yes,12.48,Blue to Pink,4,4,0.14967522350478027
608,1jf7xlxkq,39,74,1,734.100000023842,Experiment,7 1 6 7 5 1,2 7 7 5 3 7,27,31,23,Female,Yes,12.48,Blue to Pink,4,4,0.14967522350478027
609,1jf7xlxkq,40,74,1,744.200000047684,Experiment,6 9 11 9 9 5,9 8 8 5 11 11,49,52,23,Female,Yes,12.48,Blue to Pink,4,4,0.14967522350478027
610,1jf7xlxkq,41,74,1,597.5,Experiment,6 9 7 9 11 11,12 12 12 9 6 8,53,59,23,Female,Yes,12.48,Blue to Pink,4,4,0.14967522350478027
611,1jf7xlxkq,42,70,1,757.5,Experiment,3 7 6 1 5 7,5 8 1 4 6 1,29,25,23,Female,Yes,12.48,Blue to Pink,5,5,0.14967522350478027
612,1jf7xlxkq,43,74,1,502.400000035763,Experiment,8 11 9 10 6 5,12 8 5 9 10 11,49,55,23,Female,Yes,12.48,Blue to Pink,6,6,0.14967522350478027
613,1jf7xlxkq,44,70,0,987.199999988079,Experiment,3 7 6 10 8 3,7 7 3 9 8 5,37,39,23,Female,Yes,12.48,Blue to Pink,5,5,0.14967522350478027
614,1jf7xlxkq,45,70,1,1117.5,Experiment,4 5 5 8 1 6,8 1 8 4 2 3,29,26,23,Female,Yes,12.48,Blue to Pink,5,5,0.14967522350478027
615,1jf7xlxkq,46,74,1,525.299999952316,Experiment,11 6 8 11 7 8,11 12 5 12 10 5,51,55,23,Female,Yes,12.48,Blue to Pink,4,4,0.14967522350478027
616,1jf7xlxkq,47,70,0,1331.0,Experiment,8 4 8 1 2 2,6 2 6 7 3 3,25,27,23,Female,Yes,12.48,Blue to Pink,4,4,0.14967522350478027
617,1jf7xlxkq,48,70,1,804.5,Experiment,7 1 2 7 6 3,4 6 2 5 4 3,26,24,23,Female,Yes,12.48,Blue to Pink,5,5,0.14967522350478027
618,1jf7xlxkq,49,74,1,1129.59999996424,Experiment,6 4 5 8 4 9,10 7 6 7 4 8,36,42,23,Female,Yes,12.48,Blue to Pink,5,5,0.14967522350478027
619,1jf7xlxkq,50,74,0,670.099999964237,Experiment,11 7 7 10 10 12,6 7 7 10 12 10,57,52,23,Female,Yes,12.48,Blue to Pink,4,4,0.14967522350478027
620,1jf7xlxkq,51,74,1,1105.09999996424,Experiment,5 2 5 5 8 4,6 8 1 6 5 6,29,32,23,Female,Yes,12.48,Blue to Pink,4,4,0.14967522350478027
621,1jf7xlxkq,52,74,0,1689.30000001192,Experiment,5 4 10 5 10 8,10 10 3 3 4 6,42,36,23,Female,Yes,12.48,Blue to Pink,4,4,0.14967522350478027
622,1jf7xlxkq,53,74,1,1400.30000001192,Experiment,10 10 7 6 11 7,8 12 6 9 8 12,51,55,23,Female,Yes,12.48,Blue to Pink,4,4,0.14967522350478027
623,1jf7xlxkq,54,74,1,1542.5,Experiment,6 6 3 2 8 3,3 7 6 8 3 6,28,33,23,Female,Yes,12.48,Blue to Pink,4,4,0.14967522350478027
624,1jf7xlxkq,55,74,0,1431.0,Experiment,6 8 7 7 5 4,3 7 6 5 8 7,37,36,23,Female,Yes,12.48,Blue to Pink,5,5,0.14967522350478027
625,1jf7xlxkq,56,70,0,748.099999964237,Experiment,11 8 11 11 6 11,8 12 12 10 10 8,58,60,23,Female,Yes,12.48,Blue to Pink,3,3,0.14967522350478027
626,1jf7xlxkq,57,74,0,763.099999964237,Experiment,7 2 3 4 3 8,2 4 5 7 3 4,27,25,23,Female,Yes,12.48,Blue to Pink,5,5,0.14967522350478027
627,1jf7xlxkq,58,74,1,1790.09999996424,Experiment,7 5 5 1 4 2,1 7 7 4 8 2,24,29,23,Female,Yes,12.48,Blue to Pink,5,5,0.14967522350478027
628,1jf7xlxkq,59,70,0,1659.10000002384,Experiment,2 3 8 3 8 2,6 4 7 7 4 4,26,32,23,Female,Yes,12.48,Blue to Pink,3,3,0.14967522350478027
629,1jf7xlxkq,60,74,1,893.699999988079,Experiment,9 7 12 8 5 7,12 10 10 7 5 6,48,50,23,Female,Yes,12.48,Blue to Pink,5,5,0.14967522350478027
630,1jf7xlxkq,61,74,1,996.0,Experiment,5 7 1 5 5 2,1 4 7 4 5 7,25,28,23,Female,Yes,12.48,Blue to Pink,4,4,0.14967522350478027
631,1jf7xlxkq,62,74,1,876.300000011921,Experiment,3 3 6 10 8 7,7 5 9 8 9 3,37,41,23,Female,Yes,12.48,Blue to Pink,5,5,0.14967522350478027
632,1jf7xlxkq,63,70,1,1020.69999998808,Experiment,7 9 3 9 6 6,9 4 7 3 7 7,40,37,23,Female,Yes,12.48,Blue to Pink,4,4,0.14967522350478027
633,1jf7xlxkq,64,74,0,968.600000023842,Experiment,7 3 3 4 5 8,8 1 2 5 7 2,30,25,23,Female,Yes,12.48,Blue to Pink,5,5,0.14967522350478027
634,1jf7xlxkq,65,74,0,663.300000011921,Experiment,7 11 6 11 10 5,8 8 6 7 10 9,50,48,23,Female,Yes,12.48,Blue to Pink,5,5,0.14967522350478027
635,1jf7xlxkq,66,70,1,621.5,Experiment,12 11 8 9 7 7,12 6 9 5 6 11,54,49,23,Female,Yes,12.48,Blue to Pink,5,5,0.14967522350478027
636,1jf7xlxkq,67,74,1,754.399999976158,Experiment,12 5 6 11 8 8,11 6 7 8 10 10,50,52,23,Female,Yes,12.48,Blue to Pink,5,5,0.14967522350478027
637,1jf7xlxkq,68,74,0,914.5,Experiment,3 9 8 3 4 10,6 5 9 9 4 3,37,36,23,Female,Yes,12.48,Blue to Pink,5,5,0.14967522350478027
638,1jf7xlxkq,69,74,0,978.400000035763,Experiment,6 8 10 8 4 10,7 10 3 8 10 7,46,45,23,Female,Yes,12.48,Blue to Pink,4,4,0.14967522350478027
639,1jf7xlxkq,70,74,0,782.899999976158,Experiment,8 4 5 5 9 8,3 10 4 6 10 4,39,37,23,Female,Yes,12.48,Blue to Pink,4,4,0.14967522350478027
640,1jf7xlxkq,71,74,0,1190.69999998808,Experiment,6 9 6 12 11 8,8 11 10 5 9 5,52,48,23,Female,Yes,12.48,Blue to Pink,5,5,0.14967522350478027
641,1jf7xlxkq,72,70,1,1045.60000002384,Experiment,3 8 6 6 4 6,7 8 1 8 1 2,33,27,23,Female,Yes,12.48,Blue to Pink,4,4,0.14967522350478027
642,1jf7xlxkq,73,70,1,1181.69999998808,Experiment,9 5 9 7 9 4,9 3 8 7 9 3,43,39,23,Female,Yes,12.48,Blue to Pink,4,4,0.14967522350478027
643,1jf7xlxkq,74,74,1,688.800000011921,Experiment,10 9 7 3 4 4,6 10 9 5 7 5,37,42,23,Female,Yes,12.48,Blue to Pink,5,5,0.14967522350478027
644,1jf7xlxkq,75,70,1,699.399999976158,Experiment,1 8 7 1 8 6,3 7 4 4 2 7,31,27,23,Female,Yes,12.48,Blue to Pink,4,4,0.14967522350478027
645,1jf7xlxkq,76,70,0,1091.5,Experiment,7 6 5 1 4 1,5 2 4 7 8 2,24,28,23,Female,Yes,12.48,Blue to Pink,5,5,0.14967522350478027
646,1jf7xlxkq,77,74,0,1361.30000001192,Experiment,8 5 4 3 10 8,3 5 6 5 10 7,38,36,23,Female,Yes,12.48,Blue to Pink,5,5,0.14967522350478027
647,1jf7xlxkq,78,70,0,985.0,Experiment,7 8 1 7 7 6,8 4 8 6 6 5,36,37,23,Female,Yes,12.48,Blue to Pink,4,4,0.14967522350478027
648,1jf7xlxkq,79,70,1,931.5,Experiment,10 9 5 8 7 7,10 9 5 3 6 10,46,43,23,Female,Yes,12.48,Blue to Pink,5,5,0.14967522350478027
649,1jf7xlxkq,80,74,0,1244.0,Experiment,9 7 5 9 11 10,5 9 10 8 12 5,51,49,23,Female,Yes,12.48,Blue to Pink,5,5,0.14967522350478027
650,1jf7xlxkq,81,74,0,1221.19999998808,Experiment,9 5 4 10 6 5,4 9 7 6 5 6,39,37,23,Female,Yes,12.48,Blue to Pink,5,5,0.14967522350478027
651,1jf7xlxkq,82,70,1,1086.30000001192,Experiment,6 7 7 3 3 4,1 1 8 3 4 8,30,25,23,Female,Yes,12.48,Blue to Pink,4,4,0.14967522350478027
652,1jf7xlxkq,83,70,1,1080.90000003576,Experiment,2 5 8 8 8 4,2 7 5 7 5 3,35,29,23,Female,Yes,12.48,Blue to Pink,4,4,0.14967522350478027
653,1jf7xlxkq,84,74,0,777.100000023842,Experiment,8 6 9 11 6 12,9 9 6 5 11 8,52,48,23,Female,Yes,12.48,Blue to Pink,5,5,0.14967522350478027
654,1jf7xlxkq,85,74,0,1436.30000001192,Experiment,6 1 5 3 7 5,6 1 1 8 4 5,27,25,23,Female,Yes,12.48,Blue to Pink,5,5,0.14967522350478027
655,1jf7xlxkq,86,74,1,1062.90000003576,Experiment,4 5 2 7 3 7,7 4 5 3 6 4,28,29,23,Female,Yes,12.48,Blue to Pink,5,5,0.14967522350478027
656,1jf7xlxkq,87,74,0,687.299999952316,Experiment,4 5 8 8 6 9,10 6 3 4 9 6,40,38,23,Female,Yes,12.48,Blue to Pink,5,5,0.14967522350478027
657,1jf7xlxkq,88,74,1,644.300000011921,Experiment,3 5 5 6 1 4,4 2 7 3 7 6,24,29,23,Female,Yes,12.48,Blue to Pink,5,5,0.14967522350478027
658,1jf7xlxkq,89,70,1,984.199999988079,Experiment,11 11 12 8 10 5,11 5 12 11 6 8,57,53,23,Female,Yes,12.48,Blue to Pink,5,5,0.14967522350478027
659,1jf7xlxkq,90,70,1,1089.30000001192,Experiment,4 7 9 4 10 6,7 3 9 8 6 3,40,36,23,Female,Yes,12.48,Blue to Pink,5,5,0.14967522350478027
660,1jf7xlxkq,91,74,1,720.699999988079,Experiment,3 7 8 4 9 6,9 3 6 10 8 7,37,43,23,Female,Yes,12.48,Blue to Pink,6,6,0.14967522350478027
661,1jf7xlxkq,92,74,1,676.600000023842,Experiment,9 5 4 7 7 4,4 4 10 8 6 10,36,42,23,Female,Yes,12.48,Blue to Pink,4,4,0.14967522350478027
662,1jf7xlxkq,93,74,0,909.899999976158,Experiment,12 12 6 10 10 8,10 5 12 12 9 9,58,57,23,Female,Yes,12.48,Blue to Pink,4,4,0.14967522350478027
663,1jf7xlxkq,94,74,1,1092.89999997616,Experiment,3 7 5 6 3 5,6 5 5 2 7 6,29,31,23,Female,Yes,12.48,Blue to Pink,4,4,0.14967522350478027
664,1jf7xlxkq,95,74,1,1666.10000002384,Experiment,10 9 9 10 5 8,7 9 12 9 5 12,51,54,23,Female,Yes,12.48,Blue to Pink,4,4,0.14967522350478027
665,1jf7xlxkq,96,74,1,837.699999988079,Experiment,8 7 6 6 7 8,7 10 7 3 10 7,42,44,23,Female,Yes,12.48,Blue to Pink,3,3,0.14967522350478027
666,1jf7xlxkq,97,74,1,956.100000023842,Experiment,2 4 1 7 4 8,2 6 7 6 4 3,26,28,23,Female,Yes,12.48,Blue to Pink,5,5,0.14967522350478027
667,1jf7xlxkq,98,74,1,1006.10000002384,Experiment,4 10 3 3 10 9,5 8 8 8 6 10,39,45,23,Female,Yes,12.48,Blue to Pink,4,4,0.14967522350478027
668,1jf7xlxkq,99,70,0,1298.80000001192,Experiment,4 6 2 4 5 8,8 2 5 2 6 7,29,30,23,Female,Yes,12.48,Blue to Pink,5,5,0.14967522350478027
669,1jf7xlxkq,100,70,0,1169.40000003576,Experiment,4 6 1 6 5 5,5 3 8 8 5 1,27,30,23,Female,Yes,12.48,Blue to Pink,4,4,0.14967522350478027
670,1jf7xlxkq,101,70,1,1093.09999996424,Experiment,9 5 10 7 11 11,10 5 8 5 12 9,53,49,23,Female,Yes,12.48,Blue to Pink,5,5,0.14967522350478027
671,1jf7xlxkq,102,74,1,640.800000011921,Experiment,8 11 11 9 7 6,10 11 7 8 9 8,52,53,23,Female,Yes,12.48,Blue to Pink,5,5,0.14967522350478027
672,1jf7xlxkq,103,70,1,681.699999988079,Experiment,12 9 10 7 10 11,11 8 10 5 12 11,59,57,23,Female,Yes,12.48,Blue to Pink,5,5,0.14967522350478027
673,1jf7xlxkq,104,70,1,1297.60000002384,Experiment,2 8 5 4 6 5,6 2 4 2 7 3,30,24,23,Female,Yes,12.48,Blue to Pink,5,5,0.14967522350478027
674,1jf7xlxkq,105,74,0,1559.5,Experiment,10 9 8 12 9 6,6 11 10 7 6 8,54,48,23,Female,Yes,12.48,Blue to Pink,5,5,0.14967522350478027
675,1jf7xlxkq,106,74,1,658.300000011921,Experiment,5 6 1 2 3 7,1 8 5 2 3 7,24,26,23,Female,Yes,12.48,Blue to Pink,6,6,0.14967522350478027
676,1jf7xlxkq,107,70,1,703.399999976158,Experiment,11 10 11 11 7 7,11 7 11 9 7 7,57,52,23,Female,Yes,12.48,Blue to Pink,3,3,0.14967522350478027
677,1jf7xlxkq,108,74,1,791.699999988079,Experiment,12 12 7 6 5 8,5 10 9 9 12 8,50,53,23,Female,Yes,12.48,Blue to Pink,5,5,0.14967522350478027
678,1jf7xlxkq,109,74,1,761.199999988079,Experiment,7 6 10 12 6 8,5 12 9 11 12 6,49,55,23,Female,Yes,12.48,Blue to Pink,5,5,0.14967522350478027
679,1jf7xlxkq,110,70,0,987.699999988079,Experiment,12 5 6 11 12 5,10 7 12 10 8 10,51,57,23,Female,Yes,12.48,Blue to Pink,4,4,0.14967522350478027
680,1jf7xlxkq,111,70,0,1151.20000004768,Experiment,8 8 6 6 1 2,8 1 4 8 7 4,31,32,23,Female,Yes,12.48,Blue to Pink,4,4,0.14967522350478027
681,1jf7xlxkq,112,74,1,866.900000035763,Experiment,11 6 8 9 5 9,8 12 11 11 5 6,48,53,23,Female,Yes,12.48,Blue to Pink,5,5,0.14967522350478027
682,1jf7xlxkq,113,74,1,1386.0,Experiment,8 8 6 5 9 12,9 7 8 7 12 6,48,49,23,Female,Yes,12.48,Blue to Pink,5,5,0.14967522350478027
683,1jf7xlxkq,114,70,1,1043.89999997616,Experiment,6 10 7 4 10 6,5 4 8 5 8 9,43,39,23,Female,Yes,12.48,Blue to Pink,4,4,0.14967522350478027
684,1jf7xlxkq,115,70,1,834.900000035763,Experiment,2 6 8 8 4 6,5 6 8 8 5 1,34,33,23,Female,Yes,12.48,Blue to Pink,4,4,0.14967522350478027
685,1jf7xlxkq,116,70,0,838.399999976158,Experiment,8 7 1 7 6 4,6 3 6 8 7 5,33,35,23,Female,Yes,12.48,Blue to Pink,5,5,0.14967522350478027
686,1jf7xlxkq,117,74,0,604.0,Experiment,9 5 4 3 9 8,8 7 6 4 6 5,38,36,23,Female,Yes,12.48,Blue to Pink,5,5,0.14967522350478027
687,1jf7xlxkq,118,74,1,711.600000023842,Experiment,6 12 7 12 6 7,8 11 8 11 10 8,50,56,23,Female,Yes,12.48,Blue to Pink,3,3,0.14967522350478027
688,1jf7xlxkq,119,74,0,771.699999988079,Experiment,12 8 11 9 11 10,9 11 11 10 12 7,61,60,23,Female,Yes,12.48,Blue to Pink,5,5,0.14967522350478027
689,1jf7xlxkq,120,70,1,704.100000023842,Experiment,7 10 12 10 7 8,9 5 9 12 5 11,54,51,23,Female,Yes,12.48,Blue to Pink,4,4,0.14967522350478027
690,1jf7xlxkq,121,74,0,694.900000035763,Experiment,10 12 9 5 10 10,8 9 9 6 9 12,56,53,23,Female,Yes,12.48,Blue to Pink,4,4,0.14967522350478027
691,1jf7xlxkq,122,70,1,681.600000023842,Experiment,10 4 9 4 7 8,4 10 6 7 8 6,42,41,23,Female,Yes,12.48,Blue to Pink,5,5,0.14967522350478027
692,1jf7xlxkq,123,74,1,581.300000011921,Experiment,7 4 3 7 6 9,4 7 9 6 10 4,36,40,23,Female,Yes,12.48,Blue to Pink,5,5,0.14967522350478027
693,1jf7xlxkq,124,70,1,573.400000035763,Experiment,9 11 11 6 7 11,11 5 10 11 9 5,55,51,23,Female,Yes,12.48,Blue to Pink,4,4,0.14967522350478027
694,1jf7xlxkq,125,74,1,1003.29999995232,Experiment,5 2 5 7 3 2,8 6 4 2 8 2,24,30,23,Female,Yes,12.48,Blue to Pink,4,4,0.14967522350478027
695,1jf7xlxkq,126,74,1,715.699999988079,Experiment,5 8 11 12 12 7,9 7 10 9 11 12,55,58,23,Female,Yes,12.48,Blue to Pink,5,5,0.14967522350478027
696,1jf7xlxkq,127,74,0,639.199999988079,Experiment,2 3 5 3 8 4,5 8 1 4 2 4,25,24,23,Female,Yes,12.48,Blue to Pink,5,5,0.14967522350478027
697,1jf7xlxkq,128,74,1,1164.09999996424,Experiment,7 8 7 2 4 1,7 6 8 1 4 7,29,33,23,Female,Yes,12.48,Blue to Pink,5,5,0.14967522350478027
698,1jf7xlxkq,129,74,0,1414.19999998808,Experiment,8 5 4 4 8 2,3 6 3 7 6 2,31,27,23,Female,Yes,12.48,Blue to Pink,4,4,0.14967522350478027
699,1jf7xlxkq,130,74,1,868.200000047684,Experiment,5 1 7 5 1 8,3 6 4 6 3 8,27,30,23,Female,Yes,12.48,Blue to Pink,4,4,0.14967522350478027
700,1jf7xlxkq,131,74,0,847.399999976158,Experiment,11 9 12 7 5 6,6 5 11 9 10 7,50,48,23,Female,Yes,12.48,Blue to Pink,6,6,0.14967522350478027
701,1jf7xlxkq,132,74,0,805.899999976158,Experiment,8 10 8 10 6 6,6 9 4 9 9 9,48,46,23,Female,Yes,12.48,Blue to Pink,3,3,0.14967522350478027
702,1jf7xlxkq,133,70,1,540.600000023842,Experiment,6 10 8 12 12 12,9 8 12 6 8 12,60,55,23,Female,Yes,12.48,Blue to Pink,4,4,0.14967522350478027
703,1jf7xlxkq,134,74,0,839.5,Experiment,8 6 9 5 5 9,10 6 3 10 5 3,42,37,23,Female,Yes,12.48,Blue to Pink,4,4,0.14967522350478027
704,1jf7xlxkq,135,74,1,1058.10000002384,Experiment,9 10 7 9 5 8,9 6 7 10 8 9,48,49,23,Female,Yes,12.48,Blue to Pink,5,5,0.14967522350478027
705,1jf7xlxkq,136,74,1,1157.5,Experiment,2 4 3 2 6 8,7 8 1 8 2 5,25,31,23,Female,Yes,12.48,Blue to Pink,5,5,0.14967522350478027
706,1jf7xlxkq,137,70,1,674.699999988079,Experiment,7 9 10 10 4 3,8 4 4 10 6 5,43,37,23,Female,Yes,12.48,Blue to Pink,5,5,0.14967522350478027
707,1jf7xlxkq,138,70,1,1174.90000003576,Experiment,6 5 8 9 7 6,9 5 9 4 6 7,41,40,23,Female,Yes,12.48,Blue to Pink,5,5,0.14967522350478027
708,1jf7xlxkq,139,70,1,917.0,Experiment,9 9 5 5 9 8,5 7 9 5 5 9,45,40,23,Female,Yes,12.48,Blue to Pink,3,3,0.14967522350478027
709,1jf7xlxkq,140,70,1,739.399999976158,Experiment,9 10 3 3 10 8,4 9 5 9 6 6,43,39,23,Female,Yes,12.48,Blue to Pink,4,4,0.14967522350478027
710,1jf7xlxkq,141,70,1,597.300000011921,Experiment,8 8 3 7 5 9,5 5 10 4 7 8,40,39,23,Female,Yes,12.48,Blue to Pink,5,5,0.14967522350478027
711,1jf7xlxkq,142,70,0,1504.60000002384,Experiment,8 7 9 11 6 8,6 11 7 7 8 12,49,51,23,Female,Yes,12.48,Blue to Pink,5,5,0.14967522350478027
712,1jf7xlxkq,143,74,1,716.599999964237,Experiment,6 9 9 11 7 6,6 12 12 8 10 6,48,54,23,Female,Yes,12.48,Blue to Pink,4,4,0.14967522350478027
713,1jf7xlxkq,144,70,1,2297.10000002384,Experiment,10 7 6 5 4 5,3 6 4 7 10 6,37,36,23,Female,Yes,12.48,Blue to Pink,5,5,0.14967522350478027
714,1jf7xlxkq,145,70,1,1226.89999997616,Experiment,11 7 8 7 10 11,8 12 7 5 12 5,54,49,23,Female,Yes,12.48,Blue to Pink,4,4,0.14967522350478027
715,1jf7xlxkq,146,74,1,622.300000011921,Experiment,1 2 4 5 7 5,8 7 2 4 2 5,24,28,23,Female,Yes,12.48,Blue to Pink,5,5,0.14967522350478027
716,1jf7xlxkq,147,70,0,748.199999988079,Experiment,5 10 11 11 12 11,9 12 8 10 10 12,60,61,23,Female,Yes,12.48,Blue to Pink,4,4,0.14967522350478027
717,1jf7xlxkq,148,70,0,1228.30000001192,Experiment,2 8 1 4 8 1,8 3 8 6 3 2,24,30,23,Female,Yes,12.48,Blue to Pink,4,4,0.14967522350478027
718,1jf7xlxkq,149,74,1,925.399999976158,Experiment,7 9 12 7 6 10,5 10 11 7 9 10,51,52,23,Female,Yes,12.48,Blue to Pink,5,5,0.14967522350478027
719,1jf7xlxkq,150,74,0,3035.60000002384,Experiment,6 5 6 3 7 1,2 6 3 5 8 3,28,27,23,Female,Yes,12.48,Blue to Pink,5,5,0.14967522350478027
720,1klohz2hz,1,70,1,2908.19999998808,Training,8 3 7 6 5 10,3 2 2 6 6 11,39,30,35,Female,Yes,12.59,Pink to Blue,6,4,-0.034863904302479466
721,1klohz2hz,2,70,1,981.5,Training,7 10 12 10 8 3,9 6 5 8 2 1,50,31,35,Female,Yes,12.59,Pink to Blue,5,6,-0.034863904302479466
722,1klohz2hz,3,74,0,1037.19999998808,Training,7 3 11 12 8 1,10 4 7 5 9 3,42,38,35,Female,Yes,12.59,Pink to Blue,6,6,-0.034863904302479466
723,1klohz2hz,4,70,1,922.799999952316,Training,3 12 12 7 1 9,10 2 2 1 5 3,44,23,35,Female,Yes,12.59,Pink to Blue,5,5,-0.034863904302479466
724,1klohz2hz,5,74,1,672.399999976158,Training,5 12 4 9 7 8,10 8 12 8 10 12,45,60,35,Female,Yes,12.59,Pink to Blue,6,3,-0.034863904302479466
725,1klohz2hz,6,74,1,1463.29999995232,Training,10 9 3 1 5 2,2 8 9 1 5 10,30,35,35,Female,Yes,12.59,Pink to Blue,6,6,-0.034863904302479466
726,1klohz2hz,7,74,1,1316.39999997616,Training,4 11 5 1 5 12,8 9 6 12 3 1,38,39,35,Female,Yes,12.59,Pink to Blue,5,6,-0.034863904302479466
727,1klohz2hz,8,74,1,1665.10000002384,Training,5 6 3 7 12 7,12 12 3 1 7 9,40,44,35,Female,Yes,12.59,Pink to Blue,5,5,-0.034863904302479466
728,1klohz2hz,9,74,1,1031.09999996424,Training,11 10 1 2 7 9,3 12 10 11 5 10,40,51,35,Female,Yes,12.59,Pink to Blue,6,5,-0.034863904302479466
729,1klohz2hz,10,74,1,1761.40000003576,Training,7 6 2 12 1 11,11 4 9 6 8 7,39,45,35,Female,Yes,12.59,Pink to Blue,6,6,-0.034863904302479466
730,1klohz2hz,11,74,1,871.900000035763,Training,7 3 3 6 7 4,10 5 9 9 3 1,30,37,35,Female,Yes,12.59,Pink to Blue,4,5,-0.034863904302479466
731,1klohz2hz,12,74,0,1777.40000003576,Training,6 6 1 4 12 12,8 4 8 8 4 5,41,37,35,Female,Yes,12.59,Pink to Blue,4,3,-0.034863904302479466
732,1klohz2hz,13,74,0,879.699999988079,Training,5 3 8 5 12 4,10 2 2 11 4 6,37,35,35,Female,Yes,12.59,Pink to Blue,5,5,-0.034863904302479466
733,1klohz2hz,14,74,1,1314.90000003576,Training,3 10 3 5 8 6,8 11 2 7 11 1,35,40,35,Female,Yes,12.59,Pink to Blue,5,5,-0.034863904302479466
734,1klohz2hz,15,74,1,1080.40000003576,Training,3 6 9 9 9 4,11 11 3 2 6 11,40,44,35,Female,Yes,12.59,Pink to Blue,4,4,-0.034863904302479466
735,1klohz2hz,16,74,1,1281.60000002384,Training,10 10 8 3 4 5,11 3 7 12 5 3,40,41,35,Female,Yes,12.59,Pink to Blue,5,5,-0.034863904302479466
736,1klohz2hz,17,74,1,2810.60000002384,Training,8 12 12 3 1 9,5 8 7 12 9 10,45,51,35,Female,Yes,12.59,Pink to Blue,5,6,-0.034863904302479466
737,1klohz2hz,18,70,1,1521.39999997616,Training,7 7 4 11 8 11,5 2 5 9 1 4,48,26,35,Female,Yes,12.59,Pink to Blue,4,5,-0.034863904302479466
738,1klohz2hz,19,74,1,924.799999952316,Training,10 3 8 5 4 2,2 10 9 11 12 12,32,56,35,Female,Yes,12.59,Pink to Blue,6,5,-0.034863904302479466
