,Unnamed: 0.1,index,Unnamed: 0,Left_sum,Right_sum,acc2_VB,accuracy,arr_L,arr_R,compensation,first_rainbow,key_press,rainbow1,rainbow2,randidx_FR,randidx_VB,response,reward_val_VB,rt,second_rainbow,slider_start,stimulus,subject,task,testvalue,time_elapsed,trialN,trial_type,value,OV,skew
0,0,2,2,30.0,33.0,,1.0,"[5, 4, 1, 8, 5, 7]","[4, 7, 5, 8, 3, 6]",11.5,,74.0,Green to Orange,Pink to Blue,,,,,7387.099999994039,,,,hwrblsy3h,training_FR,,119720,1.0,blocks,,63.0,0.11056540228439714
1,1,3,3,27.0,34.0,,1.0,"[3, 2, 4, 8, 3, 7]","[6, 5, 4, 8, 4, 7]",11.5,,74.0,Green to Orange,Pink to Blue,,,,,4552.300000011921,,,,hwrblsy3h,training_FR,,126285,2.0,blocks,,61.0,0.11056540228439714
2,2,4,4,18.0,32.0,,1.0,"[1, 5, 1, 5, 5, 1]","[3, 4, 6, 8, 6, 5]",11.5,,74.0,Green to Orange,Pink to Blue,,,,,1198.9000000059605,,,,hwrblsy3h,training_FR,,129496,3.0,blocks,,50.0,0.11056540228439714
3,3,5,5,24.0,25.0,,1.0,"[6, 1, 3, 7, 2, 5]","[1, 1, 5, 4, 7, 7]",11.5,,74.0,Green to Orange,Pink to Blue,,,,,3185.5999999940395,,,,hwrblsy3h,training_FR,,134703,4.0,blocks,,49.0,0.11056540228439714
4,4,6,6,33.0,25.0,,1.0,"[6, 8, 6, 5, 6, 2]","[2, 1, 6, 6, 5, 5]",11.5,,70.0,Green to Orange,Pink to Blue,,,,,1310.5,,,,hwrblsy3h,training_FR,,138028,5.0,blocks,,58.0,0.11056540228439714
5,5,7,7,23.0,32.0,,1.0,"[5, 2, 5, 1, 6, 4]","[8, 2, 4, 2, 8, 8]",11.5,,74.0,Green to Orange,Pink to Blue,,,,,783.4000000059605,,,,hwrblsy3h,training_FR,,140826,6.0,blocks,,55.0,0.11056540228439714
6,6,8,8,24.0,14.0,,1.0,"[4, 3, 7, 1, 8, 1]","[7, 2, 1, 2, 1, 1]",11.5,,70.0,Green to Orange,Pink to Blue,,,,,1311.2000000178814,,,,hwrblsy3h,training_FR,,144153,7.0,blocks,,38.0,0.11056540228439714
7,7,9,9,18.0,25.0,,1.0,"[2, 6, 5, 1, 2, 2]","[4, 5, 8, 3, 2, 3]",11.5,,74.0,Green to Orange,Pink to Blue,,,,,1647.7000000178814,,,,hwrblsy3h,training_FR,,147812,8.0,blocks,,43.0,0.11056540228439714
8,8,10,10,22.0,31.0,,1.0,"[1, 6, 1, 3, 3, 8]","[8, 1, 6, 6, 3, 7]",11.5,,74.0,Green to Orange,Pink to Blue,,,,,1201.9000000059605,,,,hwrblsy3h,training_FR,,151025,9.0,blocks,,53.0,0.11056540228439714
9,9,11,11,20.0,18.0,,0.0,"[8, 2, 1, 3, 2, 4]","[2, 7, 1, 1, 2, 5]",11.5,,74.0,Green to Orange,Pink to Blue,,,,,4242.199999988079,,,,hwrblsy3h,training_FR,,157283,10.0,blocks,,38.0,0.11056540228439714
10,10,12,12,19.0,22.0,,0.0,"[1, 6, 2, 7, 1, 2]","[5, 3, 5, 2, 2, 5]",11.5,,70.0,Green to Orange,Pink to Blue,,,,,1489.300000011921,,,,hwrblsy3h,training_FR,,160784,11.0,blocks,,41.0,0.11056540228439714
11,11,13,13,27.0,32.0,,1.0,"[1, 2, 3, 6, 7, 8]","[7, 6, 2, 2, 7, 8]",11.5,,74.0,Green to Orange,Pink to Blue,,,,,1059.300000011921,,,,hwrblsy3h,training_FR,,163854,12.0,blocks,,59.0,0.11056540228439714
12,12,14,14,26.0,25.0,,0.0,"[8, 4, 2, 3, 3, 6]","[4, 5, 7, 2, 4, 3]",11.5,,74.0,Green to Orange,Pink to Blue,,,,,1997.0999999940395,,,,hwrblsy3h,training_FR,,167865,13.0,blocks,,51.0,0.11056540228439714
13,13,15,15,26.0,30.0,,1.0,"[5, 1, 8, 4, 7, 1]","[7, 8, 2, 5, 3, 5]",11.5,,74.0,Green to Orange,Pink to Blue,,,,,1371.100000023842,,,,hwrblsy3h,training_FR,,171249,14.0,blocks,,56.0,0.11056540228439714
14,14,16,16,23.0,27.0,,0.0,"[6, 2, 1, 1, 8, 5]","[2, 7, 5, 4, 5, 4]",11.5,,70.0,Green to Orange,Pink to Blue,,,,,1263.4000000059605,,,,hwrblsy3h,training_FR,,174526,15.0,blocks,,50.0,0.11056540228439714
15,15,17,17,20.0,28.0,,0.0,"[1, 6, 2, 1, 3, 7]","[7, 1, 6, 3, 4, 7]",11.5,,70.0,Green to Orange,Pink to Blue,,,,,2072.300000011921,,,,hwrblsy3h,training_FR,,178611,16.0,blocks,,48.0,0.11056540228439714
16,16,18,18,16.0,28.0,,1.0,"[7, 1, 1, 3, 3, 1]","[8, 3, 2, 6, 2, 7]",11.5,,74.0,Green to Orange,Pink to Blue,,,,,807.5,,,,hwrblsy3h,training_FR,,181438,17.0,blocks,,44.0,0.11056540228439714
17,17,19,19,32.0,13.0,,1.0,"[5, 5, 8, 4, 2, 8]","[1, 4, 1, 2, 4, 1]",11.5,,70.0,Green to Orange,Pink to Blue,,,,,621.8000000119209,,,,hwrblsy3h,training_FR,,184073,18.0,blocks,,45.0,0.11056540228439714
18,18,20,20,20.0,25.0,,1.0,"[4, 4, 2, 4, 2, 4]","[5, 4, 5, 4, 5, 2]",11.5,,74.0,Green to Orange,Pink to Blue,,,,,1195.199999988079,,,,hwrblsy3h,training_FR,,187283,19.0,blocks,,45.0,0.11056540228439714
19,19,21,21,18.0,28.0,,1.0,"[1, 7, 5, 1, 2, 2]","[5, 7, 4, 1, 6, 5]",11.5,,74.0,Green to Orange,Pink to Blue,,,,,1163.699999988079,,,,hwrblsy3h,training_FR,,190460,20.0,blocks,,46.0,0.11056540228439714
20,20,22,22,26.0,27.0,,1.0,"[5, 2, 8, 4, 1, 6]","[8, 5, 5, 1, 2, 6]",11.5,,74.0,Green to Orange,Pink to Blue,,,,,1998.5,,,,hwrblsy3h,training_FR,,194470,21.0,blocks,,53.0,0.11056540228439714
21,21,23,23,25.0,32.0,,1.0,"[5, 8, 1, 4, 5, 2]","[7, 6, 8, 4, 5, 2]",11.5,,74.0,Green to Orange,Pink to Blue,,,,,1460.5999999940395,,,,hwrblsy3h,training_FR,,197941,22.0,blocks,,57.0,0.11056540228439714
22,22,24,24,28.0,27.0,,0.0,"[4, 7, 4, 6, 1, 6]","[5, 4, 5, 8, 4, 1]",11.5,,74.0,Green to Orange,Pink to Blue,,,,,965.4000000059604,,,,hwrblsy3h,training_FR,,200918,23.0,blocks,,55.0,0.11056540228439714
23,23,25,25,34.0,19.0,,1.0,"[7, 8, 6, 4, 8, 1]","[2, 1, 3, 7, 4, 2]",11.5,,70.0,Green to Orange,Pink to Blue,,,,,666.4000000059605,,,,hwrblsy3h,training_FR,,203595,24.0,blocks,,53.0,0.11056540228439714
24,24,26,26,33.0,27.0,,1.0,"[8, 7, 5, 7, 1, 5]","[8, 2, 7, 2, 3, 5]",11.5,,70.0,Green to Orange,Pink to Blue,,,,,614.7000000178814,,,,hwrblsy3h,training_FR,,206225,25.0,blocks,,60.0,0.11056540228439714
25,25,27,27,27.0,25.0,,1.0,"[5, 4, 6, 3, 1, 8]","[2, 3, 6, 2, 5, 7]",11.5,,70.0,Green to Orange,Pink to Blue,,,,,559.0999999940395,,,,hwrblsy3h,training_FR,,208797,26.0,blocks,,52.0,0.11056540228439714
26,26,28,28,28.0,24.0,,1.0,"[4, 4, 5, 7, 3, 5]","[6, 3, 3, 1, 7, 4]",11.5,,70.0,Green to Orange,Pink to Blue,,,,,891.1999999880791,,,,hwrblsy3h,training_FR,,211699,27.0,blocks,,52.0,0.11056540228439714
27,27,29,29,31.0,26.0,,1.0,"[5, 5, 5, 5, 3, 8]","[4, 4, 8, 5, 2, 3]",11.5,,70.0,Green to Orange,Pink to Blue,,,,,650.1999999880791,,,,hwrblsy3h,training_FR,,214364,28.0,blocks,,57.0,0.11056540228439714
28,28,30,30,26.0,20.0,,1.0,"[6, 1, 4, 7, 7, 1]","[3, 5, 1, 2, 3, 6]",11.5,,70.0,Green to Orange,Pink to Blue,,,,,585.1999999880791,,,,hwrblsy3h,training_FR,,216959,29.0,blocks,,46.0,0.11056540228439714
29,29,31,31,24.0,21.0,,1.0,"[2, 4, 5, 3, 7, 3]","[3, 6, 1, 2, 2, 7]",11.5,,70.0,Green to Orange,Pink to Blue,,,,,880.0,,,,hwrblsy3h,training_FR,,219849,30.0,blocks,,45.0,0.11056540228439714
30,30,32,32,30.0,29.0,,1.0,"[7, 7, 3, 7, 3, 3]","[3, 8, 2, 7, 6, 3]",11.5,,70.0,Green to Orange,Pink to Blue,,,,,691.3000000119209,,,,hwrblsy3h,experiment_FR,,314181,1.0,blocks-exp,,59.0,0.11056540228439714
31,31,33,33,33.0,30.0,,1.0,"[4, 4, 7, 2, 8, 8]","[4, 6, 6, 7, 1, 6]",11.5,,70.0,Green to Orange,Pink to Blue,,,,,1019.5999999940396,,,,hwrblsy3h,experiment_FR,,316212,2.0,blocks-exp,,63.0,0.11056540228439714
32,32,34,34,24.0,16.0,,1.0,"[6, 1, 7, 6, 1, 3]","[2, 2, 1, 5, 1, 5]",11.5,,70.0,Green to Orange,Pink to Blue,,,,,1172.5,,,,hwrblsy3h,experiment_FR,,318394,3.0,blocks-exp,,40.0,0.11056540228439714
33,33,35,35,30.0,21.0,,1.0,"[2, 7, 1, 5, 8, 7]","[1, 4, 3, 4, 1, 8]",11.5,,70.0,Green to Orange,Pink to Blue,,,,,610.7999999821186,,,,hwrblsy3h,experiment_FR,,320014,4.0,blocks-exp,,51.0,0.11056540228439714
34,34,36,36,22.0,26.0,,1.0,"[3, 3, 3, 1, 5, 7]","[8, 3, 4, 4, 4, 3]",11.5,,74.0,Green to Orange,Pink to Blue,,,,,1280.699999988079,,,,hwrblsy3h,experiment_FR,,322307,5.0,blocks-exp,,48.0,0.11056540228439714
35,35,37,37,28.0,24.0,,1.0,"[6, 3, 4, 4, 7, 4]","[4, 1, 5, 2, 6, 6]",11.5,,70.0,Green to Orange,Pink to Blue,,,,,1303.0,,,,hwrblsy3h,experiment_FR,,324623,6.0,blocks-exp,,52.0,0.11056540228439714
36,36,38,38,33.0,25.0,,1.0,"[7, 8, 7, 5, 2, 4]","[3, 8, 6, 4, 1, 3]",11.5,,70.0,Green to Orange,Pink to Blue,,,,,568.3000000119209,,,,hwrblsy3h,experiment_FR,,326198,7.0,blocks-exp,,58.0,0.11056540228439714
37,37,39,39,21.0,32.0,,1.0,"[8, 3, 3, 2, 1, 4]","[5, 8, 2, 7, 6, 4]",11.5,,74.0,Green to Orange,Pink to Blue,,,,,673.0999999940395,,,,hwrblsy3h,experiment_FR,,327882,8.0,blocks-exp,,53.0,0.11056540228439714
38,38,40,40,26.0,26.0,,1.0,"[1, 8, 3, 3, 3, 8]","[2, 7, 7, 5, 1, 4]",11.5,,70.0,Green to Orange,Pink to Blue,,,,,4840.700000017881,,,,hwrblsy3h,experiment_FR,,333732,9.0,blocks-exp,,52.0,0.11056540228439714
39,39,41,41,22.0,27.0,,1.0,"[6, 6, 3, 1, 1, 5]","[6, 5, 5, 2, 7, 2]",11.5,,74.0,Green to Orange,Pink to Blue,,,,,3817.59999999404,,,,hwrblsy3h,experiment_FR,,338567,10.0,blocks-exp,,49.0,0.11056540228439714
40,40,42,42,22.0,35.0,,1.0,"[3, 4, 1, 4, 8, 2]","[8, 7, 5, 1, 6, 8]",11.5,,74.0,Green to Orange,Pink to Blue,,,,,832.5,,,,hwrblsy3h,experiment_FR,,340412,11.0,blocks-exp,,57.0,0.11056540228439714
41,41,43,43,34.0,26.0,,1.0,"[7, 5, 5, 4, 5, 8]","[1, 6, 6, 1, 4, 8]",11.5,,70.0,Green to Orange,Pink to Blue,,,,,1579.2999999821186,,,,hwrblsy3h,experiment_FR,,343002,12.0,blocks-exp,,60.0,0.11056540228439714
42,42,44,44,37.0,30.0,,1.0,"[8, 3, 6, 7, 7, 6]","[6, 7, 4, 4, 7, 2]",11.5,,70.0,Green to Orange,Pink to Blue,,,,,2528.800000011921,,,,hwrblsy3h,experiment_FR,,346543,13.0,blocks-exp,,67.0,0.11056540228439714
43,43,45,45,26.0,22.0,,1.0,"[6, 6, 1, 3, 8, 2]","[3, 5, 7, 2, 1, 4]",11.5,,70.0,Green to Orange,Pink to Blue,,,,,1052.5999999940395,,,,hwrblsy3h,experiment_FR,,348603,14.0,blocks-exp,,48.0,0.11056540228439714
44,44,46,46,23.0,26.0,,1.0,"[6, 1, 5, 7, 1, 3]","[2, 7, 2, 2, 8, 5]",11.5,,74.0,Green to Orange,Pink to Blue,,,,,1113.4000000059605,,,,hwrblsy3h,experiment_FR,,350729,15.0,blocks-exp,,49.0,0.11056540228439714
45,45,47,47,27.0,26.0,,0.0,"[6, 2, 5, 2, 7, 5]","[7, 7, 1, 2, 7, 2]",11.5,,74.0,Green to Orange,Pink to Blue,,,,,1168.5,,,,hwrblsy3h,experiment_FR,,352905,16.0,blocks-exp,,53.0,0.11056540228439714
46,46,48,48,16.0,17.0,,1.0,"[6, 1, 1, 5, 1, 2]","[1, 2, 6, 3, 4, 1]",11.5,,74.0,Green to Orange,Pink to Blue,,,,,4282.09999999404,,,,hwrblsy3h,experiment_FR,,358200,17.0,blocks-exp,,33.0,0.11056540228439714
47,47,49,49,22.0,34.0,,1.0,"[1, 6, 1, 3, 6, 5]","[8, 7, 4, 5, 7, 3]",11.5,,74.0,Green to Orange,Pink to Blue,,,,,787.8999999761581,,,,hwrblsy3h,experiment_FR,,359995,18.0,blocks-exp,,56.0,0.11056540228439714
48,48,50,50,26.0,28.0,,1.0,"[1, 1, 7, 5, 8, 4]","[4, 2, 3, 7, 8, 4]",11.5,,74.0,Green to Orange,Pink to Blue,,,,,996.0999999940396,,,,hwrblsy3h,experiment_FR,,362001,19.0,blocks-exp,,54.0,0.11056540228439714
49,49,51,51,32.0,21.0,,1.0,"[6, 6, 6, 3, 7, 4]","[6, 1, 1, 3, 8, 2]",11.5,,70.0,Green to Orange,Pink to Blue,,,,,902.8000000119208,,,,hwrblsy3h,experiment_FR,,363918,20.0,blocks-exp,,53.0,0.11056540228439714
50,50,52,52,21.0,24.0,,0.0,"[2, 1, 8, 2, 5, 3]","[6, 1, 5, 4, 4, 4]",11.5,,70.0,Green to Orange,Pink to Blue,,,,,698.9000000059605,,,,hwrblsy3h,experiment_FR,,365637,21.0,blocks-exp,,45.0,0.11056540228439714
51,51,53,53,28.0,27.0,,1.0,"[3, 3, 4, 5, 7, 6]","[5, 4, 3, 6, 1, 8]",11.5,,70.0,Green to Orange,Pink to Blue,,,,,938.4000000059604,,,,hwrblsy3h,experiment_FR,,367587,22.0,blocks-exp,,55.0,0.11056540228439714
52,52,54,54,26.0,19.0,,1.0,"[3, 2, 3, 6, 4, 8]","[2, 5, 6, 1, 1, 4]",11.5,,70.0,Green to Orange,Pink to Blue,,,,,981.5,,,,hwrblsy3h,experiment_FR,,369577,23.0,blocks-exp,,45.0,0.11056540228439714
53,53,55,55,24.0,27.0,,0.0,"[2, 2, 5, 7, 6, 2]","[4, 5, 6, 6, 5, 1]",11.5,,70.0,Green to Orange,Pink to Blue,,,,,798.6999999880791,,,,hwrblsy3h,experiment_FR,,371388,24.0,blocks-exp,,51.0,0.11056540228439714
54,54,56,56,24.0,20.0,,1.0,"[2, 1, 7, 4, 8, 2]","[3, 1, 7, 7, 1, 1]",11.5,,70.0,Green to Orange,Pink to Blue,,,,,1044.0999999940395,,,,hwrblsy3h,experiment_FR,,373443,25.0,blocks-exp,,44.0,0.11056540228439714
55,55,57,57,22.0,28.0,,0.0,"[1, 4, 6, 1, 5, 5]","[7, 6, 4, 3, 1, 7]",11.5,,70.0,Green to Orange,Pink to Blue,,,,,1134.5999999940395,,,,hwrblsy3h,experiment_FR,,375587,26.0,blocks-exp,,50.0,0.11056540228439714
56,56,58,58,22.0,29.0,,1.0,"[5, 2, 2, 3, 6, 4]","[8, 3, 5, 5, 6, 2]",11.5,,74.0,Green to Orange,Pink to Blue,,,,,1323.199999988079,,,,hwrblsy3h,experiment_FR,,377919,27.0,blocks-exp,,51.0,0.11056540228439714
57,57,59,59,27.0,27.0,,1.0,"[4, 6, 4, 3, 8, 2]","[6, 3, 6, 3, 4, 5]",11.5,,70.0,Green to Orange,Pink to Blue,,,,,1013.0,,,,hwrblsy3h,experiment_FR,,379945,28.0,blocks-exp,,54.0,0.11056540228439714
58,58,60,60,17.0,19.0,,0.0,"[1, 3, 6, 1, 2, 4]","[2, 2, 4, 5, 2, 4]",11.5,,70.0,Green to Orange,Pink to Blue,,,,,2174.800000011921,,,,hwrblsy3h,experiment_FR,,383126,29.0,blocks-exp,,36.0,0.11056540228439714
59,59,61,61,35.0,22.0,,1.0,"[7, 7, 7, 8, 2, 4]","[1, 7, 2, 2, 2, 8]",11.5,,70.0,Green to Orange,Pink to Blue,,,,,584.1999999880791,,,,hwrblsy3h,experiment_FR,,384723,30.0,blocks-exp,,57.0,0.11056540228439714
60,60,62,62,19.0,27.0,,1.0,"[1, 3, 3, 6, 2, 4]","[6, 2, 4, 5, 8, 2]",11.5,,74.0,Green to Orange,Pink to Blue,,,,,599.5999999940395,,,,hwrblsy3h,experiment_FR,,386337,31.0,blocks-exp,,46.0,0.11056540228439714
61,61,63,63,26.0,25.0,,0.0,"[2, 6, 4, 2, 6, 6]","[6, 1, 7, 2, 8, 1]",11.5,,74.0,Green to Orange,Pink to Blue,,,,,962.8000000119208,,,,hwrblsy3h,experiment_FR,,388310,32.0,blocks-exp,,51.0,0.11056540228439714
62,62,64,64,35.0,22.0,,1.0,"[6, 7, 7, 8, 3, 4]","[2, 1, 4, 6, 6, 3]",11.5,,70.0,Green to Orange,Pink to Blue,,,,,617.2000000178814,,,,hwrblsy3h,experiment_FR,,389936,33.0,blocks-exp,,57.0,0.11056540228439714
63,63,65,65,13.0,18.0,,0.0,"[1, 1, 1, 2, 2, 6]","[2, 3, 3, 3, 3, 4]",11.5,,70.0,Green to Orange,Pink to Blue,,,,,779.9000000059605,,,,hwrblsy3h,experiment_FR,,391724,34.0,blocks-exp,,31.0,0.11056540228439714
64,64,66,66,23.0,26.0,,1.0,"[8, 6, 1, 2, 5, 1]","[6, 3, 4, 7, 1, 5]",11.5,,74.0,Green to Orange,Pink to Blue,,,,,3082.5,,,,hwrblsy3h,experiment_FR,,395816,35.0,blocks-exp,,49.0,0.11056540228439714
65,65,67,67,33.0,33.0,,1.0,"[6, 1, 5, 8, 8, 5]","[4, 7, 3, 6, 7, 6]",11.5,,70.0,Green to Orange,Pink to Blue,,,,,487.1999999880791,,,,hwrblsy3h,experiment_FR,,397314,36.0,blocks-exp,,66.0,0.11056540228439714
66,66,68,68,36.0,19.0,,1.0,"[8, 7, 8, 8, 1, 4]","[3, 6, 2, 1, 5, 2]",11.5,,70.0,Green to Orange,Pink to Blue,,,,,677.6999999880791,,,,hwrblsy3h,experiment_FR,,399003,37.0,blocks-exp,,55.0,0.11056540228439714
67,67,69,69,26.0,29.0,,1.0,"[8, 2, 3, 3, 8, 2]","[4, 7, 8, 1, 4, 5]",11.5,,74.0,Green to Orange,Pink to Blue,,,,,881.8000000119209,,,,hwrblsy3h,experiment_FR,,400890,38.0,blocks-exp,,55.0,0.11056540228439714
68,68,70,70,25.0,31.0,,1.0,"[5, 3, 2, 4, 4, 7]","[6, 7, 7, 4, 6, 1]",11.5,,74.0,Green to Orange,Pink to Blue,,,,,862.3000000119209,,,,hwrblsy3h,experiment_FR,,402764,39.0,blocks-exp,,56.0,0.11056540228439714
69,69,71,71,17.0,33.0,,1.0,"[5, 1, 1, 4, 5, 1]","[4, 8, 8, 8, 3, 2]",11.5,,74.0,Green to Orange,Pink to Blue,,,,,563.0,,,,hwrblsy3h,experiment_FR,,404338,40.0,blocks-exp,,50.0,0.11056540228439714
70,70,72,72,28.0,20.0,,1.0,"[3, 7, 4, 6, 6, 2]","[3, 3, 7, 2, 1, 4]",11.5,,70.0,Green to Orange,Pink to Blue,,,,,517.7000000178814,,,,hwrblsy3h,experiment_FR,,405865,41.0,blocks-exp,,48.0,0.11056540228439714
71,71,73,73,30.0,24.0,,1.0,"[6, 3, 7, 3, 5, 6]","[4, 3, 6, 2, 7, 2]",11.5,,70.0,Green to Orange,Pink to Blue,,,,,821.7999999821186,,,,hwrblsy3h,experiment_FR,,407699,42.0,blocks-exp,,54.0,0.11056540228439714
72,72,74,74,41.0,19.0,,1.0,"[6, 8, 8, 7, 6, 6]","[2, 4, 5, 5, 2, 1]",11.5,,70.0,Green to Orange,Pink to Blue,,,,,405.0,,,,hwrblsy3h,experiment_FR,,409115,43.0,blocks-exp,,60.0,0.11056540228439714
73,73,75,75,21.0,29.0,,1.0,"[3, 4, 1, 4, 3, 6]","[1, 6, 4, 3, 8, 7]",11.5,,74.0,Green to Orange,Pink to Blue,,,,,548.4000000059605,,,,hwrblsy3h,experiment_FR,,410676,44.0,blocks-exp,,50.0,0.11056540228439714
74,74,76,76,20.0,25.0,,1.0,"[2, 3, 6, 1, 6, 2]","[2, 1, 8, 3, 4, 7]",11.5,,74.0,Green to Orange,Pink to Blue,,,,,996.0,,,,hwrblsy3h,experiment_FR,,412685,45.0,blocks-exp,,45.0,0.11056540228439714
75,75,77,77,33.0,20.0,,1.0,"[2, 7, 7, 7, 4, 6]","[7, 2, 1, 2, 3, 5]",11.5,,70.0,Green to Orange,Pink to Blue,,,,,535.5999999940395,,,,hwrblsy3h,experiment_FR,,414231,46.0,blocks-exp,,53.0,0.11056540228439714
76,76,78,78,27.0,25.0,,1.0,"[1, 4, 4, 7, 4, 7]","[3, 2, 4, 2, 6, 8]",11.5,,70.0,Green to Orange,Pink to Blue,,,,,920.3000000119208,,,,hwrblsy3h,experiment_FR,,416163,47.0,blocks-exp,,52.0,0.11056540228439714
77,77,79,79,33.0,18.0,,1.0,"[8, 6, 2, 7, 5, 5]","[3, 1, 5, 1, 1, 7]",11.5,,70.0,Green to Orange,Pink to Blue,,,,,513.6999999880791,,,,hwrblsy3h,experiment_FR,,417683,48.0,blocks-exp,,51.0,0.11056540228439714
78,78,80,80,18.0,21.0,,1.0,"[3, 5, 3, 3, 1, 3]","[5, 4, 3, 3, 5, 1]",11.5,,74.0,Green to Orange,Pink to Blue,,,,,5674.200000017881,,,,hwrblsy3h,experiment_FR,,424377,49.0,blocks-exp,,39.0,0.11056540228439714
79,79,81,81,25.0,20.0,,1.0,"[3, 3, 6, 3, 2, 8]","[5, 1, 4, 7, 1, 2]",11.5,,70.0,Green to Orange,Pink to Blue,,,,,1133.699999988079,,,,hwrblsy3h,experiment_FR,,426521,50.0,blocks-exp,,45.0,0.11056540228439714
80,80,82,82,23.0,17.0,,1.0,"[4, 3, 6, 1, 8, 1]","[1, 5, 3, 2, 3, 3]",11.5,,70.0,Green to Orange,Pink to Blue,,,,,726.8000000119209,,,,hwrblsy3h,experiment_FR,,428254,51.0,blocks-exp,,40.0,0.11056540228439714
81,81,83,83,29.0,24.0,,1.0,"[4, 8, 1, 2, 7, 7]","[3, 4, 5, 8, 3, 1]",11.5,,70.0,Green to Orange,Pink to Blue,,,,,658.7999999821186,,,,hwrblsy3h,experiment_FR,,429926,52.0,blocks-exp,,53.0,0.11056540228439714
82,82,84,84,20.0,17.0,,0.0,"[2, 6, 3, 3, 2, 4]","[7, 2, 2, 1, 4, 1]",11.5,,74.0,Green to Orange,Pink to Blue,,,,,1383.600000023842,,,,hwrblsy3h,experiment_FR,,432318,53.0,blocks-exp,,37.0,0.11056540228439714
83,83,85,85,27.0,35.0,,1.0,"[4, 8, 2, 3, 5, 5]","[6, 7, 7, 8, 2, 5]",11.5,,74.0,Green to Orange,Pink to Blue,,,,,716.3999999761581,,,,hwrblsy3h,experiment_FR,,434048,54.0,blocks-exp,,62.0,0.11056540228439714
84,84,86,86,19.0,21.0,,1.0,"[4, 1, 2, 5, 3, 4]","[3, 1, 7, 6, 1, 3]",11.5,,74.0,Green to Orange,Pink to Blue,,,,,859.2000000178814,,,,hwrblsy3h,experiment_FR,,435917,55.0,blocks-exp,,40.0,0.11056540228439714
85,85,87,87,31.0,36.0,,1.0,"[3, 4, 6, 3, 8, 7]","[8, 5, 8, 7, 6, 2]",11.5,,74.0,Green to Orange,Pink to Blue,,,,,747.4000000059605,,,,hwrblsy3h,experiment_FR,,437676,56.0,blocks-exp,,67.0,0.11056540228439714
86,86,88,88,31.0,28.0,,1.0,"[4, 5, 1, 8, 8, 5]","[5, 7, 8, 1, 1, 6]",11.5,,70.0,Green to Orange,Pink to Blue,,,,,1232.800000011921,,,,hwrblsy3h,experiment_FR,,439918,57.0,blocks-exp,,59.0,0.11056540228439714
87,87,89,89,19.0,28.0,,1.0,"[2, 2, 1, 5, 5, 4]","[3, 3, 8, 3, 5, 6]",11.5,,74.0,Green to Orange,Pink to Blue,,,,,1070.899999976158,,,,hwrblsy3h,experiment_FR,,442000,58.0,blocks-exp,,47.0,0.11056540228439714
88,88,90,90,34.0,17.0,,1.0,"[5, 2, 8, 4, 7, 8]","[4, 1, 1, 4, 1, 6]",11.5,,70.0,Green to Orange,Pink to Blue,,,,,515.1999999880791,,,,hwrblsy3h,experiment_FR,,443523,59.0,blocks-exp,,51.0,0.11056540228439714
89,89,91,91,28.0,37.0,,1.0,"[8, 5, 3, 3, 6, 3]","[8, 7, 8, 2, 7, 5]",11.5,,74.0,Green to Orange,Pink to Blue,,,,,595.6999999880791,,,,hwrblsy3h,experiment_FR,,445129,60.0,blocks-exp,,65.0,0.11056540228439714
90,90,92,92,14.0,20.0,,1.0,"[4, 1, 3, 3, 2, 1]","[1, 2, 8, 2, 3, 4]",11.5,,74.0,Green to Orange,Pink to Blue,,,,,978.0999999940396,,,,hwrblsy3h,experiment_FR,,447120,61.0,blocks-exp,,34.0,0.11056540228439714
91,91,93,93,25.0,25.0,,1.0,"[7, 4, 1, 5, 6, 2]","[7, 3, 3, 6, 5, 1]",11.5,,74.0,Green to Orange,Pink to Blue,,,,,614.0999999940395,,,,hwrblsy3h,experiment_FR,,448741,62.0,blocks-exp,,50.0,0.11056540228439714
92,92,94,94,26.0,26.0,,1.0,"[5, 7, 4, 7, 2, 1]","[1, 6, 4, 5, 3, 7]",11.5,,74.0,Green to Orange,Pink to Blue,,,,,1544.2000000178814,,,,hwrblsy3h,experiment_FR,,451296,63.0,blocks-exp,,52.0,0.11056540228439714
93,93,95,95,16.0,29.0,,1.0,"[4, 1, 3, 1, 6, 1]","[3, 7, 6, 6, 2, 5]",11.5,,74.0,Green to Orange,Pink to Blue,,,,,593.6999999880791,,,,hwrblsy3h,experiment_FR,,452898,64.0,blocks-exp,,45.0,0.11056540228439714
94,94,96,96,35.0,29.0,,1.0,"[4, 4, 6, 8, 7, 6]","[3, 8, 6, 4, 4, 4]",11.5,,70.0,Green to Orange,Pink to Blue,,,,,611.2000000178814,,,,hwrblsy3h,experiment_FR,,454521,65.0,blocks-exp,,64.0,0.11056540228439714
95,95,97,97,34.0,31.0,,1.0,"[8, 8, 2, 5, 7, 4]","[3, 7, 4, 4, 5, 8]",11.5,,70.0,Green to Orange,Pink to Blue,,,,,821.6999999880791,,,,hwrblsy3h,experiment_FR,,456356,66.0,blocks-exp,,65.0,0.11056540228439714
96,96,98,98,26.0,23.0,,1.0,"[3, 5, 3, 5, 3, 7]","[4, 4, 6, 3, 5, 1]",11.5,,70.0,Green to Orange,Pink to Blue,,,,,792.0,,,,hwrblsy3h,experiment_FR,,458156,67.0,blocks-exp,,49.0,0.11056540228439714
97,97,99,99,19.0,20.0,,0.0,"[2, 1, 3, 2, 6, 5]","[2, 4, 1, 4, 4, 5]",11.5,,70.0,Green to Orange,Pink to Blue,,,,,962.9000000059604,,,,hwrblsy3h,experiment_FR,,460131,68.0,blocks-exp,,39.0,0.11056540228439714
98,98,100,100,23.0,29.0,,1.0,"[4, 1, 8, 3, 6, 1]","[1, 7, 8, 4, 2, 7]",11.5,,74.0,Green to Orange,Pink to Blue,,,,,882.0999999940395,,,,hwrblsy3h,experiment_FR,,462024,69.0,blocks-exp,,52.0,0.11056540228439714
99,99,101,101,33.0,25.0,,1.0,"[4, 7, 1, 8, 5, 8]","[3, 6, 2, 1, 7, 6]",11.5,,70.0,Green to Orange,Pink to Blue,,,,,922.2000000178814,,,,hwrblsy3h,experiment_FR,,463955,70.0,blocks-exp,,58.0,0.11056540228439714
100,100,102,102,26.0,28.0,,1.0,"[8, 5, 5, 3, 2, 3]","[5, 2, 3, 8, 7, 3]",11.5,,74.0,Green to Orange,Pink to Blue,,,,,598.3999999761581,,,,hwrblsy3h,experiment_FR,,465563,71.0,blocks-exp,,54.0,0.11056540228439714
101,101,103,103,29.0,20.0,,1.0,"[7, 7, 5, 3, 3, 4]","[6, 1, 1, 4, 6, 2]",11.5,,70.0,Green to Orange,Pink to Blue,,,,,840.5,,,,hwrblsy3h,experiment_FR,,467415,72.0,blocks-exp,,49.0,0.11056540228439714
102,102,104,104,24.0,28.0,,1.0,"[4, 2, 4, 8, 3, 3]","[1, 5, 3, 3, 8, 8]",11.5,,74.0,Green to Orange,Pink to Blue,,,,,751.0,,,,hwrblsy3h,experiment_FR,,469174,73.0,blocks-exp,,52.0,0.11056540228439714
103,103,105,105,27.0,29.0,,1.0,"[6, 2, 4, 6, 6, 3]","[5, 3, 6, 7, 2, 6]",11.5,,74.0,Green to Orange,Pink to Blue,,,,,2357.0,,,,hwrblsy3h,experiment_FR,,472541,74.0,blocks-exp,,56.0,0.11056540228439714
104,104,106,106,32.0,29.0,,1.0,"[5, 7, 6, 8, 5, 1]","[5, 2, 7, 7, 4, 4]",11.5,,70.0,Green to Orange,Pink to Blue,,,,,895.1999999880791,,,,hwrblsy3h,experiment_FR,,474445,75.0,blocks-exp,,61.0,0.11056540228439714
105,105,107,107,22.0,30.0,,1.0,"[3, 3, 6, 5, 2, 3]","[3, 8, 2, 5, 5, 7]",11.5,,74.0,Green to Orange,Pink to Blue,,,,,1052.800000011921,,,,hwrblsy3h,experiment_FR,,476510,76.0,blocks-exp,,52.0,0.11056540228439714
106,106,108,108,20.0,27.0,,1.0,"[3, 6, 2, 1, 5, 3]","[1, 8, 2, 8, 1, 7]",11.5,,74.0,Green to Orange,Pink to Blue,,,,,732.5,,,,hwrblsy3h,experiment_FR,,478252,77.0,blocks-exp,,47.0,0.11056540228439714
107,107,109,109,27.0,20.0,,1.0,"[1, 6, 6, 6, 2, 6]","[1, 2, 1, 4, 7, 5]",11.5,,70.0,Green to Orange,Pink to Blue,,,,,940.5,,,,hwrblsy3h,experiment_FR,,480202,78.0,blocks-exp,,47.0,0.11056540228439714
108,108,110,110,35.0,24.0,,1.0,"[6, 8, 1, 5, 8, 7]","[6, 2, 5, 7, 2, 2]",11.5,,70.0,Green to Orange,Pink to Blue,,,,,677.4000000059605,,,,hwrblsy3h,experiment_FR,,481894,79.0,blocks-exp,,59.0,0.11056540228439714
109,109,111,111,19.0,18.0,,1.0,"[1, 6, 1, 8, 1, 2]","[7, 1, 2, 1, 1, 6]",11.5,,70.0,Green to Orange,Pink to Blue,,,,,2305.199999988079,,,,hwrblsy3h,experiment_FR,,485207,80.0,blocks-exp,,37.0,0.11056540228439714
110,110,112,112,28.0,28.0,,0.0,"[8, 6, 5, 5, 3, 1]","[8, 6, 1, 5, 5, 3]",11.5,,74.0,Green to Orange,Pink to Blue,,,,,1130.0,,,,hwrblsy3h,experiment_FR,,487349,81.0,blocks-exp,,56.0,0.11056540228439714
111,111,113,113,34.0,27.0,,1.0,"[6, 7, 5, 4, 8, 4]","[5, 4, 5, 3, 7, 3]",11.5,,70.0,Green to Orange,Pink to Blue,,,,,700.2999999821186,,,,hwrblsy3h,experiment_FR,,489062,82.0,blocks-exp,,61.0,0.11056540228439714
112,112,114,114,33.0,42.0,,1.0,"[4, 6, 8, 7, 1, 7]","[5, 7, 8, 7, 7, 8]",11.5,,74.0,Green to Orange,Pink to Blue,,,,,726.3999999761581,,,,hwrblsy3h,experiment_FR,,490797,83.0,blocks-exp,,75.0,0.11056540228439714
113,113,115,115,32.0,27.0,,1.0,"[1, 8, 3, 5, 8, 7]","[2, 1, 8, 8, 5, 3]",11.5,,70.0,Green to Orange,Pink to Blue,,,,,899.5,,,,hwrblsy3h,experiment_FR,,492707,84.0,blocks-exp,,59.0,0.11056540228439714
114,114,116,116,31.0,25.0,,1.0,"[6, 7, 3, 8, 5, 2]","[1, 2, 6, 4, 4, 8]",11.5,,70.0,Green to Orange,Pink to Blue,,,,,1019.2999999821186,,,,hwrblsy3h,experiment_FR,,494733,85.0,blocks-exp,,56.0,0.11056540228439714
115,115,117,117,13.0,27.0,,1.0,"[4, 3, 1, 1, 1, 3]","[5, 5, 3, 4, 6, 4]",11.5,,74.0,Green to Orange,Pink to Blue,,,,,1238.5999999940395,,,,hwrblsy3h,experiment_FR,,496982,86.0,blocks-exp,,40.0,0.11056540228439714
116,116,118,118,18.0,25.0,,1.0,"[5, 2, 4, 2, 3, 2]","[6, 8, 4, 3, 1, 3]",11.5,,74.0,Green to Orange,Pink to Blue,,,,,753.2999999821186,,,,hwrblsy3h,experiment_FR,,498744,87.0,blocks-exp,,43.0,0.11056540228439714
117,117,119,119,35.0,30.0,,1.0,"[3, 8, 8, 7, 5, 4]","[1, 6, 8, 2, 6, 7]",11.5,,70.0,Green to Orange,Pink to Blue,,,,,1541.0,,,,hwrblsy3h,experiment_FR,,501298,88.0,blocks-exp,,65.0,0.11056540228439714
118,118,120,120,27.0,24.0,,1.0,"[5, 5, 5, 3, 7, 2]","[3, 2, 8, 6, 2, 3]",11.5,,70.0,Green to Orange,Pink to Blue,,,,,874.5999999940395,,,,hwrblsy3h,experiment_FR,,503179,89.0,blocks-exp,,51.0,0.11056540228439714
119,119,121,121,27.0,26.0,,0.0,"[4, 5, 5, 6, 3, 4]","[4, 7, 1, 5, 3, 6]",11.5,,74.0,Green to Orange,Pink to Blue,,,,,1055.5,,,,hwrblsy3h,experiment_FR,,505246,90.0,blocks-exp,,53.0,0.11056540228439714
120,120,122,122,29.0,23.0,,1.0,"[6, 6, 2, 1, 6, 8]","[4, 1, 4, 4, 4, 6]",11.5,,70.0,Green to Orange,Pink to Blue,,,,,497.8999999761581,,,,hwrblsy3h,experiment_FR,,506755,91.0,blocks-exp,,52.0,0.11056540228439714
121,121,123,123,29.0,26.0,,1.0,"[3, 2, 6, 6, 5, 7]","[3, 5, 1, 5, 4, 8]",11.5,,70.0,Green to Orange,Pink to Blue,,,,,698.8000000119209,,,,hwrblsy3h,experiment_FR,,508466,92.0,blocks-exp,,55.0,0.11056540228439714
122,122,124,124,24.0,24.0,,0.0,"[3, 3, 6, 3, 1, 8]","[4, 8, 2, 5, 4, 1]",11.5,,74.0,Green to Orange,Pink to Blue,,,,,781.7000000178814,,,,hwrblsy3h,experiment_FR,,510258,93.0,blocks-exp,,48.0,0.11056540228439714
123,123,125,125,17.0,22.0,,1.0,"[1, 3, 6, 3, 2, 2]","[7, 4, 4, 3, 2, 2]",11.5,,74.0,Green to Orange,Pink to Blue,,,,,932.5,,,,hwrblsy3h,experiment_FR,,512200,94.0,blocks-exp,,39.0,0.11056540228439714
124,124,126,126,22.0,31.0,,1.0,"[1, 4, 5, 2, 2, 8]","[7, 5, 4, 3, 4, 8]",11.5,,74.0,Green to Orange,Pink to Blue,,,,,970.2000000178814,,,,hwrblsy3h,experiment_FR,,514191,95.0,blocks-exp,,53.0,0.11056540228439714
125,125,127,127,25.0,25.0,,0.0,"[4, 6, 1, 8, 4, 2]","[5, 6, 4, 2, 2, 6]",11.5,,70.0,Green to Orange,Pink to Blue,,,,,802.2000000178814,,,,hwrblsy3h,experiment_FR,,516003,96.0,blocks-exp,,50.0,0.11056540228439714
126,126,128,128,25.0,31.0,,1.0,"[6, 8, 3, 4, 3, 1]","[8, 8, 8, 2, 3, 2]",11.5,,74.0,Green to Orange,Pink to Blue,,,,,769.5,,,,hwrblsy3h,experiment_FR,,517785,97.0,blocks-exp,,56.0,0.11056540228439714
127,127,129,129,27.0,31.0,,1.0,"[8, 5, 1, 1, 4, 8]","[2, 7, 8, 1, 8, 5]",11.5,,74.0,Green to Orange,Pink to Blue,,,,,635.6999999880791,,,,hwrblsy3h,experiment_FR,,519433,98.0,blocks-exp,,58.0,0.11056540228439714
128,128,130,130,26.0,23.0,,1.0,"[2, 1, 3, 7, 6, 7]","[8, 3, 1, 4, 3, 4]",11.5,,70.0,Green to Orange,Pink to Blue,,,,,660.2999999821186,,,,hwrblsy3h,experiment_FR,,521105,99.0,blocks-exp,,49.0,0.11056540228439714
129,129,131,131,22.0,25.0,,0.0,"[8, 1, 8, 2, 2, 1]","[4, 8, 3, 4, 3, 3]",11.5,,70.0,Green to Orange,Pink to Blue,,,,,1092.2999999821186,,,,hwrblsy3h,experiment_FR,,523207,100.0,blocks-exp,,47.0,0.11056540228439714
130,130,132,132,35.0,36.0,,0.0,"[8, 5, 6, 8, 2, 6]","[6, 4, 7, 8, 6, 5]",11.5,,70.0,Green to Orange,Pink to Blue,,,,,478.8000000119209,,,,hwrblsy3h,experiment_FR,,524694,101.0,blocks-exp,,71.0,0.11056540228439714
131,131,133,133,27.0,34.0,,1.0,"[2, 3, 8, 7, 6, 1]","[6, 8, 7, 6, 6, 1]",11.5,,74.0,Green to Orange,Pink to Blue,,,,,724.5999999940395,,,,hwrblsy3h,experiment_FR,,526428,102.0,blocks-exp,,61.0,0.11056540228439714
132,132,134,134,23.0,39.0,,1.0,"[4, 1, 8, 3, 5, 2]","[6, 8, 3, 8, 8, 6]",11.5,,74.0,Green to Orange,Pink to Blue,,,,,770.0,,,,hwrblsy3h,experiment_FR,,528210,103.0,blocks-exp,,62.0,0.11056540228439714
133,133,135,135,33.0,29.0,,1.0,"[2, 5, 7, 5, 7, 7]","[4, 2, 7, 7, 4, 5]",11.5,,70.0,Green to Orange,Pink to Blue,,,,,969.4000000059604,,,,hwrblsy3h,experiment_FR,,530190,104.0,blocks-exp,,62.0,0.11056540228439714
134,134,136,136,23.0,19.0,,1.0,"[2, 1, 4, 2, 8, 6]","[3, 3, 3, 1, 7, 2]",11.5,,70.0,Green to Orange,Pink to Blue,,,,,1036.100000023842,,,,hwrblsy3h,experiment_FR,,532239,105.0,blocks-exp,,42.0,0.11056540228439714
135,135,137,137,32.0,24.0,,1.0,"[5, 4, 8, 8, 3, 4]","[6, 2, 7, 1, 2, 6]",11.5,,70.0,Green to Orange,Pink to Blue,,,,,786.0999999940395,,,,hwrblsy3h,experiment_FR,,534039,106.0,blocks-exp,,56.0,0.11056540228439714
136,136,138,138,30.0,35.0,,1.0,"[1, 3, 5, 8, 7, 6]","[6, 3, 8, 3, 7, 8]",11.5,,74.0,Green to Orange,Pink to Blue,,,,,803.2999999821186,,,,hwrblsy3h,experiment_FR,,535852,107.0,blocks-exp,,65.0,0.11056540228439714
137,137,139,139,23.0,27.0,,1.0,"[4, 4, 1, 7, 1, 6]","[5, 4, 6, 2, 2, 8]",11.5,,74.0,Green to Orange,Pink to Blue,,,,,858.9000000059605,,,,hwrblsy3h,experiment_FR,,537731,108.0,blocks-exp,,50.0,0.11056540228439714
138,138,140,140,12.0,27.0,,1.0,"[1, 1, 2, 3, 3, 2]","[6, 5, 5, 3, 7, 1]",11.5,,74.0,Green to Orange,Pink to Blue,,,,,759.0999999940395,,,,hwrblsy3h,experiment_FR,,539501,109.0,blocks-exp,,39.0,0.11056540228439714
139,139,141,141,28.0,33.0,,1.0,"[3, 5, 7, 2, 3, 8]","[5, 4, 7, 8, 7, 2]",11.5,,74.0,Green to Orange,Pink to Blue,,,,,753.0999999940395,,,,hwrblsy3h,experiment_FR,,541266,110.0,blocks-exp,,61.0,0.11056540228439714
140,140,142,142,22.0,29.0,,1.0,"[7, 3, 1, 4, 5, 2]","[1, 5, 7, 6, 5, 5]",11.5,,74.0,Green to Orange,Pink to Blue,,,,,775.5,,,,hwrblsy3h,experiment_FR,,543054,111.0,blocks-exp,,51.0,0.11056540228439714
141,141,143,143,33.0,23.0,,1.0,"[1, 8, 6, 7, 6, 5]","[2, 1, 4, 8, 2, 6]",11.5,,70.0,Green to Orange,Pink to Blue,,,,,724.2000000178814,,,,hwrblsy3h,experiment_FR,,544787,112.0,blocks-exp,,56.0,0.11056540228439714
142,142,144,144,27.0,35.0,,1.0,"[4, 4, 7, 2, 6, 4]","[8, 6, 3, 7, 8, 3]",11.5,,74.0,Green to Orange,Pink to Blue,,,,,689.9000000059605,,,,hwrblsy3h,experiment_FR,,546484,113.0,blocks-exp,,62.0,0.11056540228439714
143,143,145,145,22.0,39.0,,1.0,"[2, 2, 3, 2, 7, 6]","[8, 6, 7, 3, 7, 8]",11.5,,74.0,Green to Orange,Pink to Blue,,,,,748.5,,,,hwrblsy3h,experiment_FR,,548243,114.0,blocks-exp,,61.0,0.11056540228439714
144,144,146,146,29.0,28.0,,1.0,"[5, 3, 7, 4, 7, 3]","[6, 6, 6, 2, 6, 2]",11.5,,70.0,Green to Orange,Pink to Blue,,,,,1237.2999999821186,,,,hwrblsy3h,experiment_FR,,550490,115.0,blocks-exp,,57.0,0.11056540228439714
145,145,147,147,33.0,30.0,,1.0,"[5, 6, 7, 4, 3, 8]","[3, 6, 8, 1, 5, 7]",11.5,,70.0,Green to Orange,Pink to Blue,,,,,553.6999999880791,,,,hwrblsy3h,experiment_FR,,552053,116.0,blocks-exp,,63.0,0.11056540228439714
146,146,148,148,31.0,18.0,,1.0,"[3, 5, 8, 6, 5, 4]","[4, 1, 1, 8, 1, 3]",11.5,,70.0,Green to Orange,Pink to Blue,,,,,626.6999999880791,,,,hwrblsy3h,experiment_FR,,553688,117.0,blocks-exp,,49.0,0.11056540228439714
147,147,149,149,28.0,26.0,,1.0,"[5, 4, 6, 1, 8, 4]","[3, 7, 6, 2, 3, 5]",11.5,,70.0,Green to Orange,Pink to Blue,,,,,662.0,,,,hwrblsy3h,experiment_FR,,555361,118.0,blocks-exp,,54.0,0.11056540228439714
148,148,150,150,29.0,42.0,,1.0,"[5, 3, 5, 4, 4, 8]","[6, 6, 8, 8, 6, 8]",11.5,,74.0,Green to Orange,Pink to Blue,,,,,699.0999999940395,,,,hwrblsy3h,experiment_FR,,557072,119.0,blocks-exp,,71.0,0.11056540228439714
149,149,151,151,33.0,25.0,,1.0,"[6, 6, 5, 6, 2, 8]","[6, 7, 2, 1, 8, 1]",11.5,,70.0,Green to Orange,Pink to Blue,,,,,908.0,,,,hwrblsy3h,experiment_FR,,558994,120.0,blocks-exp,,58.0,0.11056540228439714
150,150,152,152,26.0,30.0,,1.0,"[1, 1, 6, 7, 8, 3]","[5, 1, 3, 7, 6, 8]",11.5,,74.0,Green to Orange,Pink to Blue,,,,,1074.7999999821186,,,,hwrblsy3h,experiment_FR,,561090,121.0,blocks-exp,,56.0,0.11056540228439714
151,151,153,153,30.0,25.0,,1.0,"[7, 2, 6, 6, 4, 5]","[5, 4, 2, 3, 7, 4]",11.5,,70.0,Green to Orange,Pink to Blue,,,,,1473.5,,,,hwrblsy3h,experiment_FR,,563574,122.0,blocks-exp,,55.0,0.11056540228439714
152,152,154,154,28.0,26.0,,1.0,"[3, 6, 2, 7, 5, 5]","[3, 6, 7, 2, 7, 1]",11.5,,70.0,Green to Orange,Pink to Blue,,,,,983.2999999821186,,,,hwrblsy3h,experiment_FR,,565566,123.0,blocks-exp,,54.0,0.11056540228439714
153,153,155,155,34.0,23.0,,1.0,"[6, 6, 7, 8, 2, 5]","[3, 5, 6, 1, 2, 6]",11.5,,70.0,Green to Orange,Pink to Blue,,,,,780.0,,,,hwrblsy3h,experiment_FR,,567359,124.0,blocks-exp,,57.0,0.11056540228439714
154,154,156,156,44.0,25.0,,1.0,"[8, 8, 6, 8, 8, 6]","[2, 8, 5, 4, 3, 3]",11.5,,70.0,Green to Orange,Pink to Blue,,,,,602.2000000178814,,,,hwrblsy3h,experiment_FR,,568973,125.0,blocks-exp,,69.0,0.11056540228439714
155,155,157,157,27.0,19.0,,1.0,"[5, 4, 2, 8, 6, 2]","[5, 1, 7, 2, 2, 2]",11.5,,70.0,Green to Orange,Pink to Blue,,,,,712.0,,,,hwrblsy3h,experiment_FR,,570697,126.0,blocks-exp,,46.0,0.11056540228439714
156,156,158,158,27.0,19.0,,1.0,"[6, 6, 3, 1, 3, 8]","[6, 3, 1, 1, 4, 4]",11.5,,70.0,Green to Orange,Pink to Blue,,,,,706.7999999821186,,,,hwrblsy3h,experiment_FR,,572410,127.0,blocks-exp,,46.0,0.11056540228439714
157,157,159,159,30.0,25.0,,1.0,"[3, 5, 8, 4, 8, 2]","[8, 3, 2, 5, 4, 3]",11.5,,70.0,Green to Orange,Pink to Blue,,,,,431.2999999821186,,,,hwrblsy3h,experiment_FR,,573850,128.0,blocks-exp,,55.0,0.11056540228439714
158,158,160,160,21.0,22.0,,0.0,"[7, 1, 4, 1, 7, 1]","[1, 7, 5, 3, 5, 1]",11.5,,70.0,Green to Orange,Pink to Blue,,,,,788.0999999940395,,,,hwrblsy3h,experiment_FR,,575649,129.0,blocks-exp,,43.0,0.11056540228439714
159,159,161,161,25.0,32.0,,1.0,"[1, 6, 3, 6, 3, 6]","[2, 8, 5, 1, 8, 8]",11.5,,74.0,Green to Orange,Pink to Blue,,,,,658.0999999940395,,,,hwrblsy3h,experiment_FR,,577318,130.0,blocks-exp,,57.0,0.11056540228439714
160,160,162,162,23.0,33.0,,1.0,"[3, 8, 1, 4, 5, 2]","[3, 8, 3, 7, 6, 6]",11.5,,74.0,Green to Orange,Pink to Blue,,,,,666.5999999940395,,,,hwrblsy3h,experiment_FR,,578993,131.0,blocks-exp,,56.0,0.11056540228439714
161,161,163,163,30.0,38.0,,1.0,"[3, 6, 7, 2, 8, 4]","[7, 4, 8, 8, 5, 6]",11.5,,74.0,Green to Orange,Pink to Blue,,,,,778.3000000119209,,,,hwrblsy3h,experiment_FR,,580781,132.0,blocks-exp,,68.0,0.11056540228439714
162,162,164,164,33.0,17.0,,1.0,"[4, 5, 4, 7, 5, 8]","[1, 3, 3, 2, 6, 2]",11.5,,70.0,Green to Orange,Pink to Blue,,,,,950.5999999940396,,,,hwrblsy3h,experiment_FR,,582743,133.0,blocks-exp,,50.0,0.11056540228439714
163,163,165,165,31.0,37.0,,0.0,"[1, 6, 6, 8, 2, 8]","[6, 4, 6, 8, 6, 7]",11.5,,70.0,Green to Orange,Pink to Blue,,,,,1060.9000000059605,,,,hwrblsy3h,experiment_FR,,584815,134.0,blocks-exp,,68.0,0.11056540228439714
164,164,166,166,33.0,27.0,,1.0,"[6, 3, 5, 5, 7, 7]","[8, 3, 8, 4, 3, 1]",11.5,,70.0,Green to Orange,Pink to Blue,,,,,988.0,,,,hwrblsy3h,experiment_FR,,586811,135.0,blocks-exp,,60.0,0.11056540228439714
165,165,167,167,38.0,31.0,,1.0,"[6, 3, 7, 8, 7, 7]","[7, 4, 1, 5, 8, 6]",11.5,,70.0,Green to Orange,Pink to Blue,,,,,834.4000000059605,,,,hwrblsy3h,experiment_FR,,588658,136.0,blocks-exp,,69.0,0.11056540228439714
166,166,168,168,26.0,27.0,,1.0,"[5, 3, 4, 2, 4, 8]","[3, 6, 5, 7, 2, 4]",11.5,,74.0,Green to Orange,Pink to Blue,,,,,870.5,,,,hwrblsy3h,experiment_FR,,590539,137.0,blocks-exp,,53.0,0.11056540228439714
167,167,169,169,33.0,34.0,,1.0,"[5, 5, 7, 3, 8, 5]","[7, 7, 5, 2, 7, 6]",11.5,,74.0,Green to Orange,Pink to Blue,,,,,763.9000000059605,,,,hwrblsy3h,experiment_FR,,592315,138.0,blocks-exp,,67.0,0.11056540228439714
168,168,170,170,24.0,30.0,,1.0,"[6, 4, 2, 1, 5, 6]","[2, 4, 5, 4, 8, 7]",11.5,,74.0,Green to Orange,Pink to Blue,,,,,783.4000000059605,,,,hwrblsy3h,experiment_FR,,594109,139.0,blocks-exp,,54.0,0.11056540228439714
169,169,171,171,32.0,28.0,,1.0,"[8, 8, 4, 2, 8, 2]","[4, 3, 4, 8, 2, 7]",11.5,,70.0,Green to Orange,Pink to Blue,,,,,732.7000000178814,,,,hwrblsy3h,experiment_FR,,595850,140.0,blocks-exp,,60.0,0.11056540228439714
170,170,172,172,31.0,25.0,,1.0,"[4, 7, 6, 4, 3, 7]","[3, 3, 5, 4, 7, 3]",11.5,,70.0,Green to Orange,Pink to Blue,,,,,1179.5,,,,hwrblsy3h,experiment_FR,,598039,141.0,blocks-exp,,56.0,0.11056540228439714
171,171,173,173,18.0,25.0,,1.0,"[1, 1, 8, 1, 1, 6]","[1, 8, 4, 3, 4, 5]",11.5,,74.0,Green to Orange,Pink to Blue,,,,,1158.100000023842,,,,hwrblsy3h,experiment_FR,,600210,142.0,blocks-exp,,43.0,0.11056540228439714
172,172,174,174,27.0,29.0,,0.0,"[7, 4, 8, 1, 2, 5]","[5, 7, 6, 4, 6, 1]",11.5,,70.0,Green to Orange,Pink to Blue,,,,,1239.0,,,,hwrblsy3h,experiment_FR,,602456,143.0,blocks-exp,,56.0,0.11056540228439714
173,173,175,175,28.0,16.0,,1.0,"[6, 5, 7, 4, 3, 3]","[2, 2, 1, 4, 2, 5]",11.5,,70.0,Green to Orange,Pink to Blue,,,,,831.5999999940395,,,,hwrblsy3h,experiment_FR,,604297,144.0,blocks-exp,,44.0,0.11056540228439714
174,174,176,176,29.0,24.0,,1.0,"[2, 1, 7, 5, 6, 8]","[4, 2, 5, 3, 8, 2]",11.5,,70.0,Green to Orange,Pink to Blue,,,,,641.0999999940395,,,,hwrblsy3h,experiment_FR,,605951,145.0,blocks-exp,,53.0,0.11056540228439714
175,175,177,177,23.0,33.0,,0.0,"[5, 2, 4, 8, 1, 3]","[5, 4, 5, 7, 4, 8]",11.5,,70.0,Green to Orange,Pink to Blue,,,,,563.4000000059605,,,,hwrblsy3h,experiment_FR,,607524,146.0,blocks-exp,,56.0,0.11056540228439714
176,176,178,178,24.0,26.0,,0.0,"[7, 1, 5, 1, 5, 5]","[6, 8, 4, 2, 4, 2]",11.5,,70.0,Green to Orange,Pink to Blue,,,,,2358.5,,,,hwrblsy3h,experiment_FR,,610895,147.0,blocks-exp,,50.0,0.11056540228439714
177,177,179,179,27.0,38.0,,1.0,"[3, 6, 3, 7, 2, 6]","[7, 8, 8, 7, 5, 3]",11.5,,74.0,Green to Orange,Pink to Blue,,,,,3305.7000000178814,,,,hwrblsy3h,experiment_FR,,615210,148.0,blocks-exp,,65.0,0.11056540228439714
178,178,180,180,27.0,19.0,,0.0,"[5, 6, 7, 1, 4, 4]","[8, 2, 1, 3, 1, 4]",11.5,,74.0,Green to Orange,Pink to Blue,,,,,6287.299999982119,,,,hwrblsy3h,experiment_FR,,622507,149.0,blocks-exp,,46.0,0.11056540228439714
179,179,181,181,34.0,21.0,,1.0,"[5, 8, 7, 6, 6, 2]","[5, 1, 5, 4, 3, 3]",11.5,,70.0,Green to Orange,Pink to Blue,,,,,1066.5999999940395,,,,hwrblsy3h,experiment_FR,,624585,150.0,blocks-exp,,55.0,0.11056540228439714
180,180,577,192,24.0,31.0,,0.0,"[2, 6, 8, 3, 4, 1]","[1, 8, 3, 8, 6, 5]",12.25,,70.0,Pink to Blue,Green to Orange,,,,,1630.199999988079,,,,ua60hkvff,training_FR,,589968,1.0,blocks,,55.0,-0.061356282244253504
181,181,578,193,23.0,21.0,,1.0,"[6, 6, 3, 2, 1, 5]","[6, 1, 7, 1, 1, 5]",12.25,,70.0,Pink to Blue,Green to Orange,,,,,1229.100000023842,,,,ua60hkvff,training_FR,,593202,2.0,blocks,,44.0,-0.061356282244253504
182,182,579,194,26.0,30.0,,1.0,"[7, 1, 3, 4, 5, 6]","[5, 4, 4, 6, 4, 7]",12.25,,74.0,Pink to Blue,Green to Orange,,,,,1573.0999999642372,,,,ua60hkvff,training_FR,,596780,3.0,blocks,,56.0,-0.061356282244253504
183,183,580,195,31.0,39.0,,1.0,"[7, 4, 5, 3, 7, 5]","[7, 3, 8, 6, 7, 8]",12.25,,74.0,Pink to Blue,Green to Orange,,,,,1230.199999988079,,,,ua60hkvff,training_FR,,600015,4.0,blocks,,70.0,-0.061356282244253504
184,184,581,196,26.0,31.0,,1.0,"[4, 1, 6, 1, 8, 6]","[3, 8, 7, 7, 2, 4]",12.25,,74.0,Pink to Blue,Green to Orange,,,,,1227.0999999642372,,,,ua60hkvff,training_FR,,603246,5.0,blocks,,57.0,-0.061356282244253504
185,185,582,197,28.0,24.0,,0.0,"[6, 1, 2, 4, 8, 7]","[2, 4, 3, 5, 3, 7]",12.25,,74.0,Pink to Blue,Green to Orange,,,,,867.6999999880791,,,,ua60hkvff,training_FR,,606128,6.0,blocks,,52.0,-0.061356282244253504
186,186,583,198,31.0,21.0,,1.0,"[5, 6, 4, 4, 5, 7]","[5, 1, 6, 5, 1, 3]",12.25,,70.0,Pink to Blue,Green to Orange,,,,,1538.100000023842,,,,ua60hkvff,training_FR,,609679,7.0,blocks,,52.0,-0.061356282244253504
187,187,584,199,24.0,27.0,,1.0,"[1, 5, 8, 6, 2, 2]","[3, 2, 8, 7, 1, 6]",12.25,,74.0,Pink to Blue,Green to Orange,,,,,973.6999999880792,,,,ua60hkvff,training_FR,,612657,8.0,blocks,,51.0,-0.061356282244253504
188,188,585,200,28.0,19.0,,1.0,"[7, 5, 7, 4, 4, 1]","[2, 5, 2, 3, 1, 6]",12.25,,70.0,Pink to Blue,Green to Orange,,,,,760.9000000357628,,,,ua60hkvff,training_FR,,615423,9.0,blocks,,47.0,-0.061356282244253504
189,189,586,201,28.0,27.0,,1.0,"[6, 1, 6, 2, 7, 6]","[3, 8, 4, 5, 6, 1]",12.25,,70.0,Pink to Blue,Green to Orange,,,,,707.8999999761581,,,,ua60hkvff,training_FR,,618150,10.0,blocks,,55.0,-0.061356282244253504
190,190,587,202,21.0,24.0,,1.0,"[6, 1, 5, 4, 1, 4]","[8, 1, 5, 7, 2, 1]",12.25,,74.0,Pink to Blue,Green to Orange,,,,,1459.100000023842,,,,ua60hkvff,training_FR,,621614,11.0,blocks,,45.0,-0.061356282244253504
191,191,588,203,39.0,20.0,,1.0,"[8, 6, 6, 6, 6, 7]","[2, 1, 1, 4, 8, 4]",12.25,,70.0,Pink to Blue,Green to Orange,,,,,630.3000000119209,,,,ua60hkvff,training_FR,,624251,12.0,blocks,,59.0,-0.061356282244253504
192,192,589,204,30.0,25.0,,0.0,"[7, 2, 6, 3, 5, 7]","[5, 1, 7, 7, 4, 1]",12.25,,74.0,Pink to Blue,Green to Orange,,,,,2432.0,,,,ua60hkvff,training_FR,,628688,13.0,blocks,,55.0,-0.061356282244253504
193,193,590,205,31.0,29.0,,1.0,"[4, 5, 6, 8, 5, 3]","[5, 3, 3, 6, 6, 6]",12.25,,70.0,Pink to Blue,Green to Orange,,,,,596.5,,,,ua60hkvff,training_FR,,631304,14.0,blocks,,60.0,-0.061356282244253504
194,194,591,206,23.0,26.0,,1.0,"[4, 4, 6, 1, 2, 6]","[7, 6, 3, 2, 2, 6]",12.25,,74.0,Pink to Blue,Green to Orange,,,,,680.8000000119209,,,,ua60hkvff,training_FR,,633990,15.0,blocks,,49.0,-0.061356282244253504
195,195,592,207,38.0,19.0,,1.0,"[8, 5, 5, 4, 8, 8]","[1, 2, 1, 3, 4, 8]",12.25,,70.0,Pink to Blue,Green to Orange,,,,,538.6000000238419,,,,ua60hkvff,training_FR,,636543,16.0,blocks,,57.0,-0.061356282244253504
196,196,593,208,25.0,31.0,,1.0,"[2, 8, 4, 7, 2, 2]","[3, 6, 4, 7, 3, 8]",12.25,,74.0,Pink to Blue,Green to Orange,,,,,1169.699999988079,,,,ua60hkvff,training_FR,,639718,17.0,blocks,,56.0,-0.061356282244253504
197,197,594,209,25.0,30.0,,1.0,"[7, 6, 4, 3, 1, 4]","[4, 5, 7, 5, 6, 3]",12.25,,74.0,Pink to Blue,Green to Orange,,,,,759.6999999880791,,,,ua60hkvff,training_FR,,642483,18.0,blocks,,55.0,-0.061356282244253504
198,198,595,210,26.0,20.0,,1.0,"[2, 7, 1, 4, 4, 8]","[2, 3, 3, 8, 1, 3]",12.25,,70.0,Pink to Blue,Green to Orange,,,,,1066.5999999642372,,,,ua60hkvff,training_FR,,645552,19.0,blocks,,46.0,-0.061356282244253504
199,199,596,211,22.0,30.0,,1.0,"[1, 5, 6, 2, 5, 3]","[8, 4, 5, 3, 2, 8]",12.25,,74.0,Pink to Blue,Green to Orange,,,,,1048.300000011921,,,,ua60hkvff,training_FR,,648606,20.0,blocks,,52.0,-0.061356282244253504
200,200,597,212,25.0,19.0,,1.0,"[3, 1, 3, 3, 7, 8]","[6, 1, 4, 4, 3, 1]",12.25,,70.0,Pink to Blue,Green to Orange,,,,,644.0,,,,ua60hkvff,training_FR,,651254,21.0,blocks,,44.0,-0.061356282244253504
201,201,598,213,32.0,25.0,,1.0,"[8, 1, 7, 4, 6, 6]","[3, 5, 1, 5, 4, 7]",12.25,,70.0,Pink to Blue,Green to Orange,,,,,606.6999999880791,,,,ua60hkvff,training_FR,,653866,22.0,blocks,,57.0,-0.061356282244253504
202,202,599,214,32.0,21.0,,1.0,"[7, 7, 7, 4, 6, 1]","[1, 3, 5, 4, 6, 2]",12.25,,70.0,Pink to Blue,Green to Orange,,,,,805.7999999523163,,,,ua60hkvff,training_FR,,656676,23.0,blocks,,53.0,-0.061356282244253504
203,203,600,215,24.0,28.0,,1.0,"[4, 3, 1, 7, 8, 1]","[1, 6, 6, 4, 4, 7]",12.25,,74.0,Pink to Blue,Green to Orange,,,,,837.1000000238419,,,,ua60hkvff,training_FR,,659516,24.0,blocks,,52.0,-0.061356282244253504
204,204,601,216,39.0,35.0,,1.0,"[8, 8, 7, 5, 8, 3]","[2, 5, 5, 8, 7, 8]",12.25,,70.0,Pink to Blue,Green to Orange,,,,,473.0999999642372,,,,ua60hkvff,training_FR,,661993,25.0,blocks,,74.0,-0.061356282244253504
205,205,602,217,39.0,31.0,,1.0,"[7, 7, 4, 8, 5, 8]","[5, 8, 4, 5, 4, 5]",12.25,,70.0,Pink to Blue,Green to Orange,,,,,434.8999999761581,,,,ua60hkvff,training_FR,,664441,26.0,blocks,,70.0,-0.061356282244253504
206,206,603,218,30.0,26.0,,1.0,"[6, 8, 8, 1, 2, 5]","[4, 6, 2, 8, 4, 2]",12.25,,70.0,Pink to Blue,Green to Orange,,,,,546.0,,,,ua60hkvff,training_FR,,666992,27.0,blocks,,56.0,-0.061356282244253504
207,207,604,219,22.0,32.0,,1.0,"[1, 5, 2, 7, 3, 4]","[4, 5, 8, 5, 4, 6]",12.25,,74.0,Pink to Blue,Green to Orange,,,,,660.1000000238419,,,,ua60hkvff,training_FR,,669657,28.0,blocks,,54.0,-0.061356282244253504
208,208,605,220,20.0,22.0,,1.0,"[4, 2, 4, 4, 2, 4]","[6, 6, 5, 1, 2, 2]",12.25,,74.0,Pink to Blue,Green to Orange,,,,,477.5,,,,ua60hkvff,training_FR,,672140,29.0,blocks,,42.0,-0.061356282244253504
209,209,606,221,31.0,22.0,,1.0,"[1, 4, 6, 8, 4, 8]","[2, 4, 1, 6, 7, 2]",12.25,,70.0,Pink to Blue,Green to Orange,,,,,479.4000000357628,,,,ua60hkvff,training_FR,,674626,30.0,blocks,,53.0,-0.061356282244253504
210,210,607,222,34.0,30.0,,1.0,"[4, 3, 7, 5, 7, 8]","[5, 4, 5, 7, 1, 8]",12.25,,70.0,Pink to Blue,Green to Orange,,,,,1067.0,,,,ua60hkvff,experiment_FR,,725340,1.0,blocks-exp,,64.0,-0.061356282244253504
211,211,608,223,18.0,44.0,,1.0,"[1, 3, 2, 1, 5, 6]","[8, 7, 7, 7, 8, 7]",12.25,,74.0,Pink to Blue,Green to Orange,,,,,497.8000000119209,,,,ua60hkvff,experiment_FR,,726842,2.0,blocks-exp,,62.0,-0.061356282244253504
212,212,609,224,25.0,19.0,,1.0,"[1, 7, 7, 1, 7, 2]","[8, 1, 4, 1, 3, 2]",12.25,,70.0,Pink to Blue,Green to Orange,,,,,777.5,,,,ua60hkvff,experiment_FR,,728640,3.0,blocks-exp,,44.0,-0.061356282244253504
213,213,610,225,32.0,23.0,,1.0,"[7, 1, 6, 8, 2, 8]","[1, 2, 2, 8, 4, 6]",12.25,,70.0,Pink to Blue,Green to Orange,,,,,830.6000000238419,,,,ua60hkvff,experiment_FR,,730485,4.0,blocks-exp,,55.0,-0.061356282244253504
214,214,611,226,32.0,14.0,,1.0,"[8, 4, 2, 8, 7, 3]","[1, 3, 4, 1, 3, 2]",12.25,,70.0,Pink to Blue,Green to Orange,,,,,701.3000000119209,,,,ua60hkvff,experiment_FR,,732190,5.0,blocks-exp,,46.0,-0.061356282244253504
215,215,612,227,20.0,37.0,,1.0,"[2, 3, 1, 3, 8, 3]","[1, 7, 8, 7, 7, 7]",12.25,,74.0,Pink to Blue,Green to Orange,,,,,529.1000000238419,,,,ua60hkvff,experiment_FR,,733724,6.0,blocks-exp,,57.0,-0.061356282244253504
216,216,613,228,23.0,14.0,,1.0,"[4, 8, 8, 1, 1, 1]","[6, 2, 3, 1, 1, 1]",12.25,,70.0,Pink to Blue,Green to Orange,,,,,585.0999999642372,,,,ua60hkvff,experiment_FR,,735321,7.0,blocks-exp,,37.0,-0.061356282244253504
217,217,614,229,35.0,24.0,,1.0,"[5, 3, 3, 8, 8, 8]","[3, 4, 7, 5, 3, 2]",12.25,,70.0,Pink to Blue,Green to Orange,,,,,587.8000000119209,,,,ua60hkvff,experiment_FR,,736914,8.0,blocks-exp,,59.0,-0.061356282244253504
218,218,615,230,38.0,25.0,,1.0,"[8, 6, 7, 6, 3, 8]","[7, 3, 7, 3, 3, 2]",12.25,,70.0,Pink to Blue,Green to Orange,,,,,923.600000023842,,,,ua60hkvff,experiment_FR,,738842,9.0,blocks-exp,,63.0,-0.061356282244253504
219,219,616,231,18.0,19.0,,0.0,"[7, 1, 6, 2, 1, 1]","[2, 4, 4, 7, 1, 1]",12.25,,70.0,Pink to Blue,Green to Orange,,,,,685.3999999761581,,,,ua60hkvff,experiment_FR,,740533,10.0,blocks-exp,,37.0,-0.061356282244253504
220,220,617,232,27.0,33.0,,1.0,"[3, 1, 6, 8, 8, 1]","[8, 6, 1, 8, 3, 7]",12.25,,74.0,Pink to Blue,Green to Orange,,,,,1912.200000047684,,,,ua60hkvff,experiment_FR,,743450,11.0,blocks-exp,,60.0,-0.061356282244253504
221,221,618,233,31.0,21.0,,1.0,"[5, 8, 4, 2, 5, 7]","[1, 4, 2, 7, 6, 1]",12.25,,70.0,Pink to Blue,Green to Orange,,,,,1624.4000000357628,,,,ua60hkvff,experiment_FR,,746087,12.0,blocks-exp,,52.0,-0.061356282244253504
222,222,619,234,22.0,31.0,,1.0,"[7, 3, 3, 4, 2, 3]","[5, 4, 2, 7, 5, 8]",12.25,,74.0,Pink to Blue,Green to Orange,,,,,1949.5,,,,ua60hkvff,experiment_FR,,749040,13.0,blocks-exp,,53.0,-0.061356282244253504
223,223,620,235,23.0,31.0,,1.0,"[7, 1, 1, 8, 1, 5]","[5, 8, 5, 1, 4, 8]",12.25,,74.0,Pink to Blue,Green to Orange,,,,,1332.2999999523165,,,,ua60hkvff,experiment_FR,,751391,14.0,blocks-exp,,54.0,-0.061356282244253504
224,224,621,236,24.0,30.0,,1.0,"[2, 7, 4, 7, 3, 1]","[7, 7, 8, 1, 2, 5]",12.25,,74.0,Pink to Blue,Green to Orange,,,,,655.1000000238419,,,,ua60hkvff,experiment_FR,,753062,15.0,blocks-exp,,54.0,-0.061356282244253504
225,225,622,237,26.0,30.0,,1.0,"[3, 6, 1, 2, 8, 6]","[8, 2, 7, 4, 7, 2]",12.25,,74.0,Pink to Blue,Green to Orange,,,,,615.4000000357628,,,,ua60hkvff,experiment_FR,,754691,16.0,blocks-exp,,56.0,-0.061356282244253504
226,226,623,238,31.0,30.0,,0.0,"[6, 4, 8, 7, 4, 2]","[7, 4, 1, 8, 3, 7]",12.25,,74.0,Pink to Blue,Green to Orange,,,,,1315.5,,,,ua60hkvff,experiment_FR,,757018,17.0,blocks-exp,,61.0,-0.061356282244253504
227,227,624,239,30.0,25.0,,1.0,"[8, 6, 4, 6, 1, 5]","[8, 2, 4, 3, 2, 6]",12.25,,70.0,Pink to Blue,Green to Orange,,,,,1238.800000011921,,,,ua60hkvff,experiment_FR,,759273,18.0,blocks-exp,,55.0,-0.061356282244253504
228,228,625,240,19.0,24.0,,1.0,"[7, 4, 2, 4, 1, 1]","[1, 5, 8, 2, 4, 4]",12.25,,74.0,Pink to Blue,Green to Orange,,,,,993.9000000357628,,,,ua60hkvff,experiment_FR,,761272,19.0,blocks-exp,,43.0,-0.061356282244253504
229,229,626,241,23.0,34.0,,1.0,"[7, 4, 1, 2, 7, 2]","[2, 7, 3, 7, 8, 7]",12.25,,74.0,Pink to Blue,Green to Orange,,,,,599.7999999523163,,,,ua60hkvff,experiment_FR,,762880,20.0,blocks-exp,,57.0,-0.061356282244253504
230,230,627,242,15.0,12.0,,1.0,"[1, 2, 2, 2, 6, 2]","[2, 2, 1, 1, 2, 4]",12.25,,70.0,Pink to Blue,Green to Orange,,,,,821.3000000119209,,,,ua60hkvff,experiment_FR,,764707,21.0,blocks-exp,,27.0,-0.061356282244253504
231,231,628,243,14.0,28.0,,1.0,"[5, 2, 1, 3, 2, 1]","[7, 7, 1, 2, 4, 7]",12.25,,74.0,Pink to Blue,Green to Orange,,,,,485.8000000119209,,,,ua60hkvff,experiment_FR,,766197,22.0,blocks-exp,,42.0,-0.061356282244253504
232,232,629,244,17.0,30.0,,1.0,"[4, 1, 2, 5, 1, 4]","[6, 2, 7, 5, 6, 4]",12.25,,74.0,Pink to Blue,Green to Orange,,,,,730.1000000238419,,,,ua60hkvff,experiment_FR,,767949,23.0,blocks-exp,,47.0,-0.061356282244253504
233,233,630,245,24.0,24.0,,0.0,"[8, 3, 4, 4, 2, 3]","[1, 6, 4, 3, 8, 2]",12.25,,70.0,Pink to Blue,Green to Orange,,,,,1155.0,,,,ua60hkvff,experiment_FR,,770118,24.0,blocks-exp,,48.0,-0.061356282244253504
234,234,631,246,27.0,36.0,,0.0,"[6, 7, 2, 2, 2, 8]","[5, 2, 8, 7, 8, 6]",12.25,,70.0,Pink to Blue,Green to Orange,,,,,905.100000023842,,,,ua60hkvff,experiment_FR,,772027,25.0,blocks-exp,,63.0,-0.061356282244253504
235,235,632,247,23.0,18.0,,1.0,"[6, 7, 4, 1, 1, 4]","[1, 3, 5, 7, 1, 1]",12.25,,70.0,Pink to Blue,Green to Orange,,,,,515.3000000119209,,,,ua60hkvff,experiment_FR,,773547,26.0,blocks-exp,,41.0,-0.061356282244253504
236,236,633,248,28.0,25.0,,1.0,"[2, 6, 7, 2, 8, 3]","[7, 6, 3, 1, 1, 7]",12.25,,70.0,Pink to Blue,Green to Orange,,,,,1384.5,,,,ua60hkvff,experiment_FR,,775946,27.0,blocks-exp,,53.0,-0.061356282244253504
237,237,634,249,31.0,35.0,,0.0,"[1, 8, 6, 6, 2, 8]","[6, 3, 8, 6, 7, 5]",12.25,,70.0,Pink to Blue,Green to Orange,,,,,1671.600000023842,,,,ua60hkvff,experiment_FR,,778621,28.0,blocks-exp,,66.0,-0.061356282244253504
238,238,635,250,25.0,28.0,,1.0,"[6, 2, 6, 3, 2, 6]","[8, 7, 2, 4, 5, 2]",12.25,,74.0,Pink to Blue,Green to Orange,,,,,745.8000000119209,,,,ua60hkvff,experiment_FR,,780371,29.0,blocks-exp,,53.0,-0.061356282244253504
239,239,636,251,36.0,23.0,,1.0,"[8, 7, 4, 8, 2, 7]","[3, 7, 2, 5, 4, 2]",12.25,,70.0,Pink to Blue,Green to Orange,,,,,557.7000000476837,,,,ua60hkvff,experiment_FR,,781932,30.0,blocks-exp,,59.0,-0.061356282244253504
240,240,637,252,28.0,22.0,,1.0,"[5, 3, 4, 4, 7, 5]","[4, 3, 3, 3, 2, 7]",12.25,,70.0,Pink to Blue,Green to Orange,,,,,1587.300000011921,,,,ua60hkvff,experiment_FR,,784537,31.0,blocks-exp,,50.0,-0.061356282244253504
241,241,638,253,37.0,36.0,,0.0,"[3, 8, 8, 6, 7, 5]","[7, 8, 8, 2, 4, 7]",12.25,,74.0,Pink to Blue,Green to Orange,,,,,800.7999999523163,,,,ua60hkvff,experiment_FR,,786342,32.0,blocks-exp,,73.0,-0.061356282244253504
242,242,639,254,21.0,29.0,,1.0,"[4, 8, 1, 3, 3, 2]","[1, 3, 7, 5, 5, 8]",12.25,,74.0,Pink to Blue,Green to Orange,,,,,1009.8000000119208,,,,ua60hkvff,experiment_FR,,788363,33.0,blocks-exp,,50.0,-0.061356282244253504
243,243,640,255,24.0,30.0,,1.0,"[6, 7, 5, 2, 3, 1]","[4, 4, 6, 4, 4, 8]",12.25,,74.0,Pink to Blue,Green to Orange,,,,,1106.5,,,,ua60hkvff,experiment_FR,,790484,34.0,blocks-exp,,54.0,-0.061356282244253504
244,244,641,256,29.0,24.0,,1.0,"[7, 8, 4, 5, 3, 2]","[5, 7, 2, 3, 4, 3]",12.25,,70.0,Pink to Blue,Green to Orange,,,,,878.3000000119209,,,,ua60hkvff,experiment_FR,,792367,35.0,blocks-exp,,53.0,-0.061356282244253504
245,245,642,257,27.0,32.0,,1.0,"[4, 8, 3, 2, 7, 3]","[2, 3, 8, 3, 8, 8]",12.25,,74.0,Pink to Blue,Green to Orange,,,,,540.8999999761581,,,,ua60hkvff,experiment_FR,,793920,36.0,blocks-exp,,59.0,-0.061356282244253504
246,246,643,258,22.0,26.0,,0.0,"[8, 1, 6, 5, 1, 1]","[6, 4, 5, 4, 2, 5]",12.25,,70.0,Pink to Blue,Green to Orange,,,,,595.5,,,,ua60hkvff,experiment_FR,,795520,37.0,blocks-exp,,48.0,-0.061356282244253504
247,247,644,259,29.0,15.0,,1.0,"[2, 3, 4, 7, 7, 6]","[1, 3, 1, 2, 6, 2]",12.25,,70.0,Pink to Blue,Green to Orange,,,,,579.9000000357628,,,,ua60hkvff,experiment_FR,,797103,38.0,blocks-exp,,44.0,-0.061356282244253504
248,248,645,260,14.0,23.0,,1.0,"[1, 2, 4, 2, 1, 4]","[2, 3, 3, 4, 3, 8]",12.25,,74.0,Pink to Blue,Green to Orange,,,,,608.3000000119209,,,,ua60hkvff,experiment_FR,,798717,39.0,blocks-exp,,37.0,-0.061356282244253504
249,249,646,261,19.0,24.0,,0.0,"[3, 6, 1, 6, 1, 2]","[2, 5, 3, 3, 5, 6]",12.25,,70.0,Pink to Blue,Green to Orange,,,,,627.3999999761581,,,,ua60hkvff,experiment_FR,,800349,40.0,blocks-exp,,43.0,-0.061356282244253504
250,250,647,262,19.0,21.0,,1.0,"[3, 2, 1, 6, 4, 3]","[4, 2, 3, 7, 4, 1]",12.25,,74.0,Pink to Blue,Green to Orange,,,,,1006.6999999880792,,,,ua60hkvff,experiment_FR,,802360,41.0,blocks-exp,,40.0,-0.061356282244253504
251,251,648,263,23.0,34.0,,1.0,"[3, 3, 3, 5, 6, 3]","[8, 8, 4, 4, 6, 4]",12.25,,74.0,Pink to Blue,Green to Orange,,,,,567.3000000119209,,,,ua60hkvff,experiment_FR,,803931,42.0,blocks-exp,,57.0,-0.061356282244253504
252,252,649,264,30.0,26.0,,1.0,"[5, 1, 4, 6, 7, 7]","[4, 4, 6, 7, 2, 3]",12.25,,70.0,Pink to Blue,Green to Orange,,,,,699.6000000238419,,,,ua60hkvff,experiment_FR,,805635,43.0,blocks-exp,,56.0,-0.061356282244253504
253,253,650,265,26.0,17.0,,1.0,"[6, 8, 1, 4, 1, 6]","[2, 1, 3, 1, 3, 7]",12.25,,70.0,Pink to Blue,Green to Orange,,,,,629.8000000119209,,,,ua60hkvff,experiment_FR,,807270,44.0,blocks-exp,,43.0,-0.061356282244253504
254,254,651,266,29.0,30.0,,0.0,"[6, 3, 8, 8, 2, 2]","[7, 8, 1, 5, 6, 3]",12.25,,70.0,Pink to Blue,Green to Orange,,,,,1103.300000011921,,,,ua60hkvff,experiment_FR,,809381,45.0,blocks-exp,,59.0,-0.061356282244253504
255,255,652,267,29.0,21.0,,0.0,"[7, 1, 5, 5, 3, 8]","[3, 1, 6, 8, 2, 1]",12.25,,74.0,Pink to Blue,Green to Orange,,,,,1291.899999976158,,,,ua60hkvff,experiment_FR,,811681,46.0,blocks-exp,,50.0,-0.061356282244253504
256,256,653,268,27.0,26.0,,1.0,"[8, 7, 2, 7, 1, 2]","[8, 2, 1, 6, 7, 2]",12.25,,70.0,Pink to Blue,Green to Orange,,,,,852.7999999523163,,,,ua60hkvff,experiment_FR,,813538,47.0,blocks-exp,,53.0,-0.061356282244253504
257,257,654,269,19.0,29.0,,1.0,"[2, 5, 5, 1, 4, 2]","[7, 2, 6, 3, 6, 5]",12.25,,74.0,Pink to Blue,Green to Orange,,,,,533.3000000119209,,,,ua60hkvff,experiment_FR,,815075,48.0,blocks-exp,,48.0,-0.061356282244253504
258,258,655,270,18.0,20.0,,1.0,"[3, 2, 2, 1, 4, 6]","[1, 8, 2, 6, 1, 2]",12.25,,74.0,Pink to Blue,Green to Orange,,,,,890.7000000476837,,,,ua60hkvff,experiment_FR,,816971,49.0,blocks-exp,,38.0,-0.061356282244253504
259,259,656,271,10.0,28.0,,1.0,"[1, 3, 1, 3, 1, 1]","[8, 7, 1, 6, 5, 1]",12.25,,74.0,Pink to Blue,Green to Orange,,,,,494.6999999880791,,,,ua60hkvff,experiment_FR,,818471,50.0,blocks-exp,,38.0,-0.061356282244253504
260,260,657,272,30.0,34.0,,1.0,"[2, 1, 7, 5, 7, 8]","[4, 8, 8, 5, 3, 6]",12.25,,74.0,Pink to Blue,Green to Orange,,,,,1055.2000000476835,,,,ua60hkvff,experiment_FR,,820546,51.0,blocks-exp,,64.0,-0.061356282244253504
261,261,658,273,33.0,31.0,,0.0,"[3, 6, 4, 5, 8, 7]","[8, 4, 4, 8, 6, 1]",12.25,,74.0,Pink to Blue,Green to Orange,,,,,884.1999999880791,,,,ua60hkvff,experiment_FR,,822455,52.0,blocks-exp,,64.0,-0.061356282244253504
262,262,659,274,34.0,30.0,,1.0,"[3, 7, 8, 1, 8, 7]","[8, 5, 5, 8, 1, 3]",12.25,,70.0,Pink to Blue,Green to Orange,,,,,832.5,,,,ua60hkvff,experiment_FR,,824302,53.0,blocks-exp,,64.0,-0.061356282244253504
263,263,660,275,33.0,29.0,,0.0,"[5, 6, 7, 3, 7, 5]","[8, 5, 2, 4, 4, 6]",12.25,,74.0,Pink to Blue,Green to Orange,,,,,991.100000023842,,,,ua60hkvff,experiment_FR,,826307,54.0,blocks-exp,,62.0,-0.061356282244253504
264,264,661,276,25.0,31.0,,1.0,"[7, 1, 4, 8, 1, 4]","[8, 4, 5, 8, 5, 1]",12.25,,74.0,Pink to Blue,Green to Orange,,,,,739.9000000357628,,,,ua60hkvff,experiment_FR,,828060,55.0,blocks-exp,,56.0,-0.061356282244253504
265,265,662,277,28.0,18.0,,1.0,"[8, 8, 2, 2, 3, 5]","[6, 1, 3, 5, 1, 2]",12.25,,70.0,Pink to Blue,Green to Orange,,,,,911.600000023842,,,,ua60hkvff,experiment_FR,,829975,56.0,blocks-exp,,46.0,-0.061356282244253504
266,266,663,278,25.0,21.0,,1.0,"[1, 7, 5, 2, 2, 8]","[2, 2, 4, 3, 2, 8]",12.25,,70.0,Pink to Blue,Green to Orange,,,,,1441.9000000357628,,,,ua60hkvff,experiment_FR,,832420,57.0,blocks-exp,,46.0,-0.061356282244253504
267,267,664,279,28.0,37.0,,1.0,"[2, 8, 1, 4, 5, 8]","[8, 5, 7, 7, 3, 7]",12.25,,74.0,Pink to Blue,Green to Orange,,,,,566.0,,,,ua60hkvff,experiment_FR,,833991,58.0,blocks-exp,,65.0,-0.061356282244253504
268,268,665,280,34.0,24.0,,1.0,"[6, 6, 6, 2, 8, 6]","[4, 5, 1, 6, 2, 6]",12.25,,70.0,Pink to Blue,Green to Orange,,,,,761.7999999523163,,,,ua60hkvff,experiment_FR,,835756,59.0,blocks-exp,,58.0,-0.061356282244253504
269,269,666,281,21.0,34.0,,1.0,"[2, 5, 3, 3, 6, 2]","[4, 6, 4, 8, 4, 8]",12.25,,74.0,Pink to Blue,Green to Orange,,,,,582.7000000476837,,,,ua60hkvff,experiment_FR,,837343,60.0,blocks-exp,,55.0,-0.061356282244253504
270,270,667,282,25.0,30.0,,1.0,"[2, 2, 5, 5, 3, 8]","[5, 8, 3, 2, 4, 8]",12.25,,74.0,Pink to Blue,Green to Orange,,,,,592.3999999761581,,,,ua60hkvff,experiment_FR,,838939,61.0,blocks-exp,,55.0,-0.061356282244253504
271,271,668,283,26.0,30.0,,1.0,"[7, 3, 5, 3, 2, 6]","[1, 6, 3, 7, 8, 5]",12.25,,74.0,Pink to Blue,Green to Orange,,,,,1337.7999999523165,,,,ua60hkvff,experiment_FR,,841282,62.0,blocks-exp,,56.0,-0.061356282244253504
272,272,669,284,31.0,23.0,,0.0,"[3, 4, 7, 6, 7, 4]","[2, 6, 1, 1, 5, 8]",12.25,,74.0,Pink to Blue,Green to Orange,,,,,947.7000000476836,,,,ua60hkvff,experiment_FR,,843234,63.0,blocks-exp,,54.0,-0.061356282244253504
273,273,670,285,27.0,30.0,,0.0,"[4, 8, 7, 4, 2, 2]","[7, 5, 8, 4, 1, 5]",12.25,,70.0,Pink to Blue,Green to Orange,,,,,686.4000000357628,,,,ua60hkvff,experiment_FR,,844924,64.0,blocks-exp,,57.0,-0.061356282244253504
274,274,671,286,27.0,23.0,,1.0,"[3, 7, 5, 2, 4, 6]","[5, 4, 1, 4, 8, 1]",12.25,,70.0,Pink to Blue,Green to Orange,,,,,1135.600000023842,,,,ua60hkvff,experiment_FR,,847062,65.0,blocks-exp,,50.0,-0.061356282244253504
275,275,672,287,26.0,31.0,,1.0,"[1, 4, 8, 8, 2, 3]","[7, 5, 7, 1, 3, 8]",12.25,,74.0,Pink to Blue,Green to Orange,,,,,541.2000000476837,,,,ua60hkvff,experiment_FR,,848611,66.0,blocks-exp,,57.0,-0.061356282244253504
276,276,673,288,32.0,18.0,,1.0,"[6, 1, 8, 4, 7, 6]","[4, 2, 2, 4, 1, 5]",12.25,,70.0,Pink to Blue,Green to Orange,,,,,653.7000000476837,,,,ua60hkvff,experiment_FR,,850276,67.0,blocks-exp,,50.0,-0.061356282244253504
277,277,674,289,25.0,35.0,,1.0,"[7, 2, 3, 3, 7, 3]","[4, 7, 6, 2, 8, 8]",12.25,,74.0,Pink to Blue,Green to Orange,,,,,452.5999999642372,,,,ua60hkvff,experiment_FR,,851750,68.0,blocks-exp,,60.0,-0.061356282244253504
278,278,675,290,25.0,22.0,,0.0,"[8, 3, 3, 4, 2, 5]","[1, 4, 6, 3, 6, 2]",12.25,,74.0,Pink to Blue,Green to Orange,,,,,1289.5,,,,ua60hkvff,experiment_FR,,854055,69.0,blocks-exp,,47.0,-0.061356282244253504
279,279,676,291,14.0,31.0,,1.0,"[1, 1, 5, 3, 3, 1]","[1, 6, 5, 6, 6, 7]",12.25,,74.0,Pink to Blue,Green to Orange,,,,,463.6999999880791,,,,ua60hkvff,experiment_FR,,855531,70.0,blocks-exp,,45.0,-0.061356282244253504
280,280,677,292,29.0,29.0,,0.0,"[8, 6, 7, 3, 4, 1]","[4, 7, 1, 6, 7, 4]",12.25,,74.0,Pink to Blue,Green to Orange,,,,,887.6999999880791,,,,ua60hkvff,experiment_FR,,857427,71.0,blocks-exp,,58.0,-0.061356282244253504
281,281,678,293,28.0,32.0,,1.0,"[4, 4, 3, 3, 6, 8]","[5, 8, 2, 5, 6, 6]",12.25,,74.0,Pink to Blue,Green to Orange,,,,,980.0,,,,ua60hkvff,experiment_FR,,859423,72.0,blocks-exp,,60.0,-0.061356282244253504
282,282,679,294,26.0,26.0,,0.0,"[1, 8, 1, 8, 2, 6]","[4, 8, 5, 3, 4, 2]",12.25,,70.0,Pink to Blue,Green to Orange,,,,,603.8999999761581,,,,ua60hkvff,experiment_FR,,861042,73.0,blocks-exp,,52.0,-0.061356282244253504
283,283,680,295,23.0,34.0,,1.0,"[1, 3, 7, 5, 5, 2]","[7, 8, 5, 1, 6, 7]",12.25,,74.0,Pink to Blue,Green to Orange,,,,,500.3000000119209,,,,ua60hkvff,experiment_FR,,862546,74.0,blocks-exp,,57.0,-0.061356282244253504
284,284,681,296,22.0,32.0,,1.0,"[2, 6, 3, 3, 1, 7]","[2, 6, 3, 8, 5, 8]",12.25,,74.0,Pink to Blue,Green to Orange,,,,,659.8000000119209,,,,ua60hkvff,experiment_FR,,864211,75.0,blocks-exp,,54.0,-0.061356282244253504
285,285,682,297,25.0,24.0,,1.0,"[4, 6, 3, 6, 5, 1]","[7, 2, 2, 3, 4, 6]",12.25,,70.0,Pink to Blue,Green to Orange,,,,,1053.899999976158,,,,ua60hkvff,experiment_FR,,866268,76.0,blocks-exp,,49.0,-0.061356282244253504
286,286,683,298,17.0,27.0,,1.0,"[4, 3, 1, 1, 2, 6]","[6, 7, 2, 4, 4, 4]",12.25,,74.0,Pink to Blue,Green to Orange,,,,,824.0999999642372,,,,ua60hkvff,experiment_FR,,868105,77.0,blocks-exp,,44.0,-0.061356282244253504
287,287,684,299,30.0,25.0,,1.0,"[6, 8, 6, 1, 3, 6]","[2, 3, 3, 3, 6, 8]",12.25,,70.0,Pink to Blue,Green to Orange,,,,,795.5,,,,ua60hkvff,experiment_FR,,869905,78.0,blocks-exp,,55.0,-0.061356282244253504
288,288,685,300,25.0,30.0,,1.0,"[7, 6, 2, 1, 5, 4]","[1, 7, 6, 7, 7, 2]",12.25,,74.0,Pink to Blue,Green to Orange,,,,,567.6999999880791,,,,ua60hkvff,experiment_FR,,871476,79.0,blocks-exp,,55.0,-0.061356282244253504
289,289,686,301,30.0,22.0,,1.0,"[7, 8, 1, 4, 4, 6]","[4, 1, 7, 5, 2, 3]",12.25,,70.0,Pink to Blue,Green to Orange,,,,,585.6000000238419,,,,ua60hkvff,experiment_FR,,873073,80.0,blocks-exp,,52.0,-0.061356282244253504
290,290,687,302,32.0,30.0,,1.0,"[8, 5, 2, 8, 8, 1]","[7, 4, 3, 8, 5, 3]",12.25,,70.0,Pink to Blue,Green to Orange,,,,,618.1000000238419,,,,ua60hkvff,experiment_FR,,874704,81.0,blocks-exp,,62.0,-0.061356282244253504
291,291,688,303,24.0,19.0,,0.0,"[4, 3, 5, 4, 2, 6]","[5, 6, 1, 4, 2, 1]",12.25,,74.0,Pink to Blue,Green to Orange,,,,,464.5999999642372,,,,ua60hkvff,experiment_FR,,876174,82.0,blocks-exp,,43.0,-0.061356282244253504
292,292,689,304,19.0,25.0,,1.0,"[4, 5, 1, 1, 5, 3]","[7, 6, 2, 5, 4, 1]",12.25,,74.0,Pink to Blue,Green to Orange,,,,,566.8000000119209,,,,ua60hkvff,experiment_FR,,877745,83.0,blocks-exp,,44.0,-0.061356282244253504
293,293,690,305,23.0,18.0,,1.0,"[4, 3, 1, 7, 3, 5]","[7, 1, 3, 1, 2, 4]",12.25,,70.0,Pink to Blue,Green to Orange,,,,,644.4000000357628,,,,ua60hkvff,experiment_FR,,879394,84.0,blocks-exp,,41.0,-0.061356282244253504
294,294,691,306,31.0,27.0,,1.0,"[8, 6, 2, 7, 4, 4]","[5, 3, 4, 6, 3, 6]",12.25,,70.0,Pink to Blue,Green to Orange,,,,,457.6999999880791,,,,ua60hkvff,experiment_FR,,880864,85.0,blocks-exp,,58.0,-0.061356282244253504
295,295,692,307,31.0,22.0,,1.0,"[7, 5, 8, 8, 1, 2]","[3, 2, 6, 2, 5, 4]",12.25,,70.0,Pink to Blue,Green to Orange,,,,,599.6999999880791,,,,ua60hkvff,experiment_FR,,882467,86.0,blocks-exp,,53.0,-0.061356282244253504
296,296,693,308,23.0,19.0,,1.0,"[8, 4, 3, 3, 4, 1]","[8, 2, 1, 5, 1, 2]",12.25,,70.0,Pink to Blue,Green to Orange,,,,,1226.300000011921,,,,ua60hkvff,experiment_FR,,884698,87.0,blocks-exp,,42.0,-0.061356282244253504
297,297,694,309,34.0,31.0,,0.0,"[7, 6, 7, 2, 6, 6]","[5, 8, 2, 6, 2, 8]",12.25,,74.0,Pink to Blue,Green to Orange,,,,,485.6999999880791,,,,ua60hkvff,experiment_FR,,886187,88.0,blocks-exp,,65.0,-0.061356282244253504
298,298,695,310,31.0,34.0,,1.0,"[8, 6, 4, 2, 3, 8]","[1, 2, 8, 8, 7, 8]",12.25,,74.0,Pink to Blue,Green to Orange,,,,,471.1999999880791,,,,ua60hkvff,experiment_FR,,887663,89.0,blocks-exp,,65.0,-0.061356282244253504
299,299,696,311,22.0,39.0,,1.0,"[5, 3, 4, 5, 1, 4]","[5, 7, 8, 3, 8, 8]",12.25,,74.0,Pink to Blue,Green to Orange,,,,,498.7999999523163,,,,ua60hkvff,experiment_FR,,889166,90.0,blocks-exp,,61.0,-0.061356282244253504
300,300,697,312,31.0,20.0,,1.0,"[3, 2, 8, 7, 7, 4]","[3, 3, 4, 3, 1, 6]",12.25,,70.0,Pink to Blue,Green to Orange,,,,,631.5,,,,ua60hkvff,experiment_FR,,890803,91.0,blocks-exp,,51.0,-0.061356282244253504
301,301,698,313,29.0,34.0,,1.0,"[4, 7, 6, 5, 6, 1]","[4, 6, 7, 6, 3, 8]",12.25,,74.0,Pink to Blue,Green to Orange,,,,,569.3000000119209,,,,ua60hkvff,experiment_FR,,892376,92.0,blocks-exp,,63.0,-0.061356282244253504
302,302,699,314,32.0,29.0,,1.0,"[1, 8, 8, 3, 7, 5]","[3, 7, 6, 3, 6, 4]",12.25,,70.0,Pink to Blue,Green to Orange,,,,,702.3999999761581,,,,ua60hkvff,experiment_FR,,894083,93.0,blocks-exp,,61.0,-0.061356282244253504
303,303,700,315,35.0,24.0,,1.0,"[3, 5, 3, 8, 8, 8]","[5, 8, 5, 2, 3, 1]",12.25,,70.0,Pink to Blue,Green to Orange,,,,,481.60000002384186,,,,ua60hkvff,experiment_FR,,895569,94.0,blocks-exp,,59.0,-0.061356282244253504
304,304,701,316,36.0,29.0,,1.0,"[8, 5, 6, 3, 8, 6]","[7, 3, 3, 3, 5, 8]",12.25,,70.0,Pink to Blue,Green to Orange,,,,,540.4000000357628,,,,ua60hkvff,experiment_FR,,897113,95.0,blocks-exp,,65.0,-0.061356282244253504
305,305,702,317,18.0,20.0,,0.0,"[1, 8, 3, 1, 3, 2]","[4, 2, 3, 4, 2, 5]",12.25,,70.0,Pink to Blue,Green to Orange,,,,,530.3999999761581,,,,ua60hkvff,experiment_FR,,898656,96.0,blocks-exp,,38.0,-0.061356282244253504
306,306,703,318,29.0,21.0,,1.0,"[5, 5, 8, 4, 4, 3]","[2, 2, 1, 8, 6, 2]",12.25,,70.0,Pink to Blue,Green to Orange,,,,,867.6999999880791,,,,ua60hkvff,experiment_FR,,900528,97.0,blocks-exp,,50.0,-0.061356282244253504
307,307,704,319,29.0,20.0,,1.0,"[6, 1, 2, 8, 7, 5]","[3, 3, 3, 1, 4, 6]",12.25,,70.0,Pink to Blue,Green to Orange,,,,,900.4000000357628,,,,ua60hkvff,experiment_FR,,902432,98.0,blocks-exp,,49.0,-0.061356282244253504
308,308,705,320,31.0,18.0,,1.0,"[4, 8, 8, 2, 7, 2]","[1, 1, 8, 3, 4, 1]",12.25,,70.0,Pink to Blue,Green to Orange,,,,,551.5,,,,ua60hkvff,experiment_FR,,904002,99.0,blocks-exp,,49.0,-0.061356282244253504
309,309,706,321,19.0,25.0,,1.0,"[4, 2, 8, 2, 2, 1]","[3, 5, 1, 1, 7, 8]",12.25,,74.0,Pink to Blue,Green to Orange,,,,,1047.5999999642372,,,,ua60hkvff,experiment_FR,,906055,100.0,blocks-exp,,44.0,-0.061356282244253504
310,310,707,322,35.0,31.0,,1.0,"[8, 2, 3, 7, 7, 8]","[7, 8, 1, 8, 4, 3]",12.25,,70.0,Pink to Blue,Green to Orange,,,,,519.8999999761581,,,,ua60hkvff,experiment_FR,,907584,101.0,blocks-exp,,66.0,-0.061356282244253504
311,311,708,323,31.0,20.0,,1.0,"[4, 3, 4, 6, 8, 6]","[2, 4, 1, 8, 4, 1]",12.25,,70.0,Pink to Blue,Green to Orange,,,,,998.899999976158,,,,ua60hkvff,experiment_FR,,909586,102.0,blocks-exp,,51.0,-0.061356282244253504
312,312,709,324,28.0,24.0,,1.0,"[8, 3, 1, 6, 4, 6]","[8, 5, 5, 1, 1, 4]",12.25,,70.0,Pink to Blue,Green to Orange,,,,,601.6000000238419,,,,ua60hkvff,experiment_FR,,911192,103.0,blocks-exp,,52.0,-0.061356282244253504
313,313,710,325,30.0,21.0,,1.0,"[5, 6, 7, 3, 3, 6]","[5, 3, 2, 2, 8, 1]",12.25,,70.0,Pink to Blue,Green to Orange,,,,,865.5999999642372,,,,ua60hkvff,experiment_FR,,913064,104.0,blocks-exp,,51.0,-0.061356282244253504
314,314,711,326,30.0,24.0,,1.0,"[3, 5, 7, 7, 1, 7]","[7, 1, 6, 3, 2, 5]",12.25,,70.0,Pink to Blue,Green to Orange,,,,,579.1999999880791,,,,ua60hkvff,experiment_FR,,914659,105.0,blocks-exp,,54.0,-0.061356282244253504
315,315,712,327,27.0,31.0,,1.0,"[5, 8, 4, 1, 4, 5]","[8, 4, 5, 2, 6, 6]",12.25,,74.0,Pink to Blue,Green to Orange,,,,,1069.2000000476835,,,,ua60hkvff,experiment_FR,,916732,106.0,blocks-exp,,58.0,-0.061356282244253504
316,316,713,328,27.0,26.0,,0.0,"[3, 3, 3, 7, 8, 3]","[5, 7, 6, 1, 6, 1]",12.25,,74.0,Pink to Blue,Green to Orange,,,,,977.8000000119208,,,,ua60hkvff,experiment_FR,,918714,107.0,blocks-exp,,53.0,-0.061356282244253504
317,317,714,329,32.0,26.0,,0.0,"[7, 5, 6, 4, 3, 7]","[8, 2, 5, 7, 3, 1]",12.25,,74.0,Pink to Blue,Green to Orange,,,,,1010.9000000357628,,,,ua60hkvff,experiment_FR,,920737,108.0,blocks-exp,,58.0,-0.061356282244253504
318,318,715,330,20.0,26.0,,1.0,"[6, 3, 6, 1, 3, 1]","[1, 4, 6, 6, 8, 1]",12.25,,74.0,Pink to Blue,Green to Orange,,,,,1213.5,,,,ua60hkvff,experiment_FR,,922962,109.0,blocks-exp,,46.0,-0.061356282244253504
319,319,716,331,25.0,29.0,,0.0,"[5, 8, 3, 1, 2, 6]","[5, 4, 6, 6, 1, 7]",12.25,,70.0,Pink to Blue,Green to Orange,,,,,472.10000002384186,,,,ua60hkvff,experiment_FR,,924450,110.0,blocks-exp,,54.0,-0.061356282244253504
320,320,717,332,21.0,29.0,,1.0,"[1, 3, 3, 7, 4, 3]","[5, 4, 5, 6, 1, 8]",12.25,,74.0,Pink to Blue,Green to Orange,,,,,602.3999999761581,,,,ua60hkvff,experiment_FR,,926056,111.0,blocks-exp,,50.0,-0.061356282244253504
321,321,718,333,22.0,15.0,,0.0,"[3, 1, 2, 3, 6, 7]","[5, 1, 1, 2, 3, 3]",12.25,,74.0,Pink to Blue,Green to Orange,,,,,819.3000000119209,,,,ua60hkvff,experiment_FR,,927879,112.0,blocks-exp,,37.0,-0.061356282244253504
322,322,719,334,25.0,28.0,,1.0,"[3, 7, 4, 3, 4, 4]","[5, 5, 1, 6, 8, 3]",12.25,,74.0,Pink to Blue,Green to Orange,,,,,464.1999999880791,,,,ua60hkvff,experiment_FR,,929348,113.0,blocks-exp,,53.0,-0.061356282244253504
323,323,720,335,32.0,29.0,,0.0,"[4, 6, 1, 8, 5, 8]","[8, 1, 8, 3, 7, 2]",12.25,,74.0,Pink to Blue,Green to Orange,,,,,693.8999999761581,,,,ua60hkvff,experiment_FR,,931054,114.0,blocks-exp,,61.0,-0.061356282244253504
324,324,721,336,31.0,24.0,,1.0,"[7, 3, 3, 6, 8, 4]","[2, 3, 4, 4, 8, 3]",12.25,,70.0,Pink to Blue,Green to Orange,,,,,603.3999999761581,,,,ua60hkvff,experiment_FR,,932673,115.0,blocks-exp,,55.0,-0.061356282244253504
325,325,722,337,27.0,28.0,,1.0,"[8, 4, 1, 1, 6, 7]","[2, 2, 5, 3, 8, 8]",12.25,,74.0,Pink to Blue,Green to Orange,,,,,554.5,,,,ua60hkvff,experiment_FR,,934231,116.0,blocks-exp,,55.0,-0.061356282244253504
326,326,723,338,32.0,32.0,,0.0,"[5, 3, 6, 2, 8, 8]","[7, 1, 8, 7, 1, 8]",12.25,,74.0,Pink to Blue,Green to Orange,,,,,1498.399999976158,,,,ua60hkvff,experiment_FR,,936734,117.0,blocks-exp,,64.0,-0.061356282244253504
327,327,724,339,32.0,27.0,,0.0,"[4, 7, 8, 2, 3, 8]","[8, 6, 5, 5, 2, 1]",12.25,,74.0,Pink to Blue,Green to Orange,,,,,718.6999999880791,,,,ua60hkvff,experiment_FR,,938456,118.0,blocks-exp,,59.0,-0.061356282244253504
328,328,725,340,25.0,26.0,,1.0,"[5, 2, 4, 7, 4, 3]","[1, 2, 6, 4, 8, 5]",12.25,,74.0,Pink to Blue,Green to Orange,,,,,820.8000000119209,,,,ua60hkvff,experiment_FR,,940281,119.0,blocks-exp,,51.0,-0.061356282244253504
329,329,726,341,29.0,32.0,,0.0,"[8, 7, 8, 1, 2, 3]","[7, 4, 7, 5, 7, 2]",12.25,,70.0,Pink to Blue,Green to Orange,,,,,773.3000000119209,,,,ua60hkvff,experiment_FR,,942068,120.0,blocks-exp,,61.0,-0.061356282244253504
330,330,727,342,29.0,33.0,,1.0,"[6, 4, 5, 1, 6, 7]","[3, 6, 6, 3, 8, 7]",12.25,,74.0,Pink to Blue,Green to Orange,,,,,517.5,,,,ua60hkvff,experiment_FR,,943588,121.0,blocks-exp,,62.0,-0.061356282244253504
331,331,728,343,24.0,25.0,,0.0,"[4, 1, 5, 7, 5, 2]","[2, 4, 1, 7, 5, 6]",12.25,,70.0,Pink to Blue,Green to Orange,,,,,1803.5999999642368,,,,ua60hkvff,experiment_FR,,946395,122.0,blocks-exp,,49.0,-0.061356282244253504
332,332,729,344,28.0,21.0,,1.0,"[8, 2, 1, 4, 8, 5]","[2, 3, 4, 1, 3, 8]",12.25,,70.0,Pink to Blue,Green to Orange,,,,,551.8000000119209,,,,ua60hkvff,experiment_FR,,947955,123.0,blocks-exp,,49.0,-0.061356282244253504
333,333,730,345,27.0,27.0,,1.0,"[3, 2, 8, 3, 7, 4]","[8, 4, 1, 4, 3, 7]",12.25,,74.0,Pink to Blue,Green to Orange,,,,,1107.399999976158,,,,ua60hkvff,experiment_FR,,950067,124.0,blocks-exp,,54.0,-0.061356282244253504
334,334,731,346,33.0,28.0,,1.0,"[5, 5, 4, 7, 6, 6]","[7, 4, 3, 4, 2, 8]",12.25,,70.0,Pink to Blue,Green to Orange,,,,,558.5,,,,ua60hkvff,experiment_FR,,951630,125.0,blocks-exp,,61.0,-0.061356282244253504
335,335,732,347,24.0,35.0,,1.0,"[3, 2, 8, 3, 2, 6]","[7, 6, 2, 8, 7, 5]",12.25,,74.0,Pink to Blue,Green to Orange,,,,,598.6000000238419,,,,ua60hkvff,experiment_FR,,953235,126.0,blocks-exp,,59.0,-0.061356282244253504
336,336,733,348,20.0,25.0,,1.0,"[2, 1, 5, 1, 5, 6]","[5, 1, 8, 4, 3, 4]",12.25,,74.0,Pink to Blue,Green to Orange,,,,,578.5999999642372,,,,ua60hkvff,experiment_FR,,954818,127.0,blocks-exp,,45.0,-0.061356282244253504
337,337,734,349,21.0,32.0,,1.0,"[4, 5, 8, 1, 2, 1]","[6, 2, 8, 7, 6, 3]",12.25,,74.0,Pink to Blue,Green to Orange,,,,,660.8999999761581,,,,ua60hkvff,experiment_FR,,956482,128.0,blocks-exp,,53.0,-0.061356282244253504
338,338,735,350,23.0,24.0,,1.0,"[2, 5, 6, 6, 3, 1]","[5, 1, 4, 8, 2, 4]",12.25,,74.0,Pink to Blue,Green to Orange,,,,,587.6999999880791,,,,ua60hkvff,experiment_FR,,958089,129.0,blocks-exp,,47.0,-0.061356282244253504
339,339,736,351,22.0,17.0,,1.0,"[4, 5, 2, 1, 8, 2]","[2, 1, 7, 5, 1, 1]",12.25,,70.0,Pink to Blue,Green to Orange,,,,,986.399999976158,,,,ua60hkvff,experiment_FR,,960092,130.0,blocks-exp,,39.0,-0.061356282244253504
340,340,737,352,36.0,24.0,,1.0,"[8, 7, 8, 5, 5, 3]","[3, 8, 3, 1, 8, 1]",12.25,,70.0,Pink to Blue,Green to Orange,,,,,595.6000000238419,,,,ua60hkvff,experiment_FR,,961706,131.0,blocks-exp,,60.0,-0.061356282244253504
341,341,738,353,19.0,27.0,,1.0,"[1, 2, 6, 3, 4, 3]","[4, 5, 7, 7, 2, 2]",12.25,,74.0,Pink to Blue,Green to Orange,,,,,582.5,,,,ua60hkvff,experiment_FR,,963299,132.0,blocks-exp,,46.0,-0.061356282244253504
342,342,739,354,25.0,22.0,,1.0,"[1, 3, 6, 8, 5, 2]","[3, 4, 6, 5, 2, 2]",12.25,,70.0,Pink to Blue,Green to Orange,,,,,553.1000000238419,,,,ua60hkvff,experiment_FR,,964856,133.0,blocks-exp,,47.0,-0.061356282244253504
343,343,740,355,15.0,28.0,,1.0,"[5, 3, 1, 1, 3, 2]","[4, 3, 3, 6, 8, 4]",12.25,,74.0,Pink to Blue,Green to Orange,,,,,956.899999976158,,,,ua60hkvff,experiment_FR,,966816,134.0,blocks-exp,,43.0,-0.061356282244253504
344,344,741,356,26.0,26.0,,1.0,"[5, 2, 8, 4, 2, 5]","[2, 1, 8, 6, 4, 5]",12.25,,74.0,Pink to Blue,Green to Orange,,,,,506.1999999880791,,,,ua60hkvff,experiment_FR,,968326,135.0,blocks-exp,,52.0,-0.061356282244253504
345,345,742,357,28.0,26.0,,1.0,"[1, 4, 6, 2, 7, 8]","[6, 3, 8, 5, 1, 3]",12.25,,70.0,Pink to Blue,Green to Orange,,,,,546.2999999523163,,,,ua60hkvff,experiment_FR,,969876,136.0,blocks-exp,,54.0,-0.061356282244253504
346,346,743,358,15.0,22.0,,1.0,"[1, 3, 2, 7, 1, 1]","[1, 2, 8, 1, 4, 6]",12.25,,74.0,Pink to Blue,Green to Orange,,,,,677.3999999761581,,,,ua60hkvff,experiment_FR,,971557,137.0,blocks-exp,,37.0,-0.061356282244253504
347,347,744,359,23.0,20.0,,1.0,"[8, 1, 1, 2, 7, 4]","[2, 6, 4, 2, 2, 4]",12.25,,70.0,Pink to Blue,Green to Orange,,,,,757.3999999761581,,,,ua60hkvff,experiment_FR,,973319,138.0,blocks-exp,,43.0,-0.061356282244253504
348,348,745,360,27.0,26.0,,0.0,"[1, 6, 4, 8, 2, 6]","[8, 3, 7, 3, 3, 2]",12.25,,74.0,Pink to Blue,Green to Orange,,,,,1107.5999999642372,,,,ua60hkvff,experiment_FR,,975432,139.0,blocks-exp,,53.0,-0.061356282244253504
349,349,746,361,22.0,30.0,,1.0,"[4, 1, 4, 6, 6, 1]","[8, 4, 3, 4, 8, 3]",12.25,,74.0,Pink to Blue,Green to Orange,,,,,592.3000000119209,,,,ua60hkvff,experiment_FR,,977028,140.0,blocks-exp,,52.0,-0.061356282244253504
350,350,747,362,26.0,32.0,,1.0,"[1, 3, 8, 6, 2, 6]","[5, 7, 6, 8, 4, 2]",12.25,,74.0,Pink to Blue,Green to Orange,,,,,1130.899999976158,,,,ua60hkvff,experiment_FR,,979175,141.0,blocks-exp,,58.0,-0.061356282244253504
351,351,748,363,29.0,35.0,,0.0,"[8, 1, 7, 2, 8, 3]","[4, 4, 8, 5, 7, 7]",12.25,,70.0,Pink to Blue,Green to Orange,,,,,1049.5,,,,ua60hkvff,experiment_FR,,981229,142.0,blocks-exp,,64.0,-0.061356282244253504
352,352,749,364,29.0,30.0,,1.0,"[5, 2, 5, 7, 2, 8]","[3, 3, 4, 8, 4, 8]",12.25,,74.0,Pink to Blue,Green to Orange,,,,,916.6999999880792,,,,ua60hkvff,experiment_FR,,983149,143.0,blocks-exp,,59.0,-0.061356282244253504
353,353,750,365,22.0,35.0,,1.0,"[1, 7, 7, 5, 1, 1]","[8, 3, 2, 6, 8, 8]",12.25,,74.0,Pink to Blue,Green to Orange,,,,,474.1999999880791,,,,ua60hkvff,experiment_FR,,984629,144.0,blocks-exp,,57.0,-0.061356282244253504
354,354,751,366,29.0,28.0,,0.0,"[4, 4, 4, 8, 5, 4]","[7, 3, 8, 7, 2, 1]",12.25,,74.0,Pink to Blue,Green to Orange,,,,,604.4000000357628,,,,ua60hkvff,experiment_FR,,986240,145.0,blocks-exp,,57.0,-0.061356282244253504
355,355,752,367,29.0,25.0,,0.0,"[6, 4, 5, 5, 6, 3]","[4, 7, 3, 2, 7, 2]",12.25,,74.0,Pink to Blue,Green to Orange,,,,,770.5,,,,ua60hkvff,experiment_FR,,988015,146.0,blocks-exp,,54.0,-0.061356282244253504
356,356,753,368,25.0,18.0,,1.0,"[7, 5, 2, 5, 5, 1]","[1, 2, 2, 7, 1, 5]",12.25,,70.0,Pink to Blue,Green to Orange,,,,,995.1999999880792,,,,ua60hkvff,experiment_FR,,990016,147.0,blocks-exp,,43.0,-0.061356282244253504
357,357,754,369,33.0,27.0,,1.0,"[4, 6, 2, 8, 8, 5]","[6, 5, 2, 7, 2, 5]",12.25,,70.0,Pink to Blue,Green to Orange,,,,,582.3000000119209,,,,ua60hkvff,experiment_FR,,991602,148.0,blocks-exp,,60.0,-0.061356282244253504
358,358,755,370,27.0,21.0,,1.0,"[3, 2, 5, 7, 8, 2]","[1, 6, 2, 4, 7, 1]",12.25,,70.0,Pink to Blue,Green to Orange,,,,,545.1000000238419,,,,ua60hkvff,experiment_FR,,993155,149.0,blocks-exp,,48.0,-0.061356282244253504
359,359,756,371,29.0,31.0,,1.0,"[6, 5, 8, 4, 3, 3]","[7, 3, 4, 3, 6, 8]",12.25,,74.0,Pink to Blue,Green to Orange,,,,,709.3000000119209,,,,ua60hkvff,experiment_FR,,994870,150.0,blocks-exp,,60.0,-0.061356282244253504
360,360,962,192,24.0,22.0,,1.0,"[6, 1, 2, 7, 5, 3]","[1, 4, 2, 6, 5, 4]",11.5,,70.0,Green to Orange,Blue to Pink,,,,,2394.099999964237,,,,o2ql6etsj,training_FR,,809387,1.0,blocks,,46.0,0.06537524325629898
361,361,963,193,25.0,27.0,,1.0,"[4, 5, 3, 2, 8, 3]","[6, 5, 5, 8, 1, 2]",11.5,,74.0,Green to Orange,Blue to Pink,,,,,1832.5,,,,o2ql6etsj,training_FR,,813224,2.0,blocks,,52.0,0.06537524325629898
362,362,964,194,21.0,32.0,,1.0,"[6, 3, 5, 5, 1, 1]","[8, 4, 5, 5, 8, 2]",11.5,,74.0,Green to Orange,Blue to Pink,,,,,1478.5,,,,o2ql6etsj,training_FR,,816708,3.0,blocks,,53.0,0.06537524325629898
363,363,965,195,17.0,27.0,,1.0,"[1, 6, 1, 1, 5, 3]","[6, 1, 6, 2, 6, 6]",11.5,,74.0,Green to Orange,Blue to Pink,,,,,1181.0,,,,o2ql6etsj,training_FR,,819895,4.0,blocks,,44.0,0.06537524325629898
364,364,966,196,19.0,18.0,,1.0,"[6, 4, 1, 4, 2, 2]","[4, 1, 4, 2, 5, 2]",11.5,,70.0,Green to Orange,Blue to Pink,,,,,2530.199999988079,,,,o2ql6etsj,training_FR,,824432,5.0,blocks,,37.0,0.06537524325629898
365,365,967,197,19.0,20.0,,0.0,"[4, 2, 6, 4, 2, 1]","[2, 2, 3, 4, 2, 7]",11.5,,70.0,Green to Orange,Blue to Pink,,,,,3086.5,,,,o2ql6etsj,training_FR,,829525,6.0,blocks,,39.0,0.06537524325629898
366,366,968,198,31.0,16.0,,1.0,"[2, 6, 6, 5, 4, 8]","[1, 2, 4, 1, 3, 5]",11.5,,70.0,Green to Orange,Blue to Pink,,,,,1155.699999988079,,,,o2ql6etsj,training_FR,,832687,7.0,blocks,,47.0,0.06537524325629898
367,367,969,199,31.0,25.0,,1.0,"[7, 8, 7, 1, 5, 3]","[2, 2, 6, 6, 6, 3]",11.5,,70.0,Green to Orange,Blue to Pink,,,,,1102.800000011921,,,,o2ql6etsj,training_FR,,835795,8.0,blocks,,56.0,0.06537524325629898
368,368,970,200,18.0,22.0,,1.0,"[1, 4, 1, 5, 3, 4]","[3, 5, 3, 5, 5, 1]",11.5,,74.0,Green to Orange,Blue to Pink,,,,,1182.4000000357628,,,,o2ql6etsj,training_FR,,838983,9.0,blocks,,40.0,0.06537524325629898
369,369,971,201,29.0,23.0,,1.0,"[4, 4, 3, 7, 7, 4]","[3, 3, 6, 1, 3, 7]",11.5,,70.0,Green to Orange,Blue to Pink,,,,,1412.699999988079,,,,o2ql6etsj,training_FR,,842401,10.0,blocks,,52.0,0.06537524325629898
370,370,972,202,26.0,23.0,,1.0,"[2, 5, 4, 7, 6, 2]","[7, 3, 4, 3, 4, 2]",11.5,,70.0,Green to Orange,Blue to Pink,,,,,1076.199999988079,,,,o2ql6etsj,training_FR,,845489,11.0,blocks,,49.0,0.06537524325629898
371,371,973,203,14.0,28.0,,1.0,"[2, 1, 2, 5, 1, 3]","[3, 8, 6, 3, 7, 1]",11.5,,74.0,Green to Orange,Blue to Pink,,,,,798.4000000357628,,,,o2ql6etsj,training_FR,,848293,12.0,blocks,,42.0,0.06537524325629898
372,372,974,204,23.0,33.0,,1.0,"[6, 7, 2, 4, 3, 1]","[2, 5, 6, 8, 7, 5]",11.5,,74.0,Green to Orange,Blue to Pink,,,,,767.8999999761581,,,,o2ql6etsj,training_FR,,851067,13.0,blocks,,56.0,0.06537524325629898
373,373,975,205,32.0,24.0,,1.0,"[6, 8, 3, 5, 2, 8]","[1, 3, 6, 7, 2, 5]",11.5,,70.0,Green to Orange,Blue to Pink,,,,,960.2999999523164,,,,o2ql6etsj,training_FR,,854032,14.0,blocks,,56.0,0.06537524325629898
374,374,976,206,30.0,37.0,,1.0,"[1, 6, 8, 5, 4, 6]","[4, 8, 8, 4, 7, 6]",11.5,,74.0,Green to Orange,Blue to Pink,,,,,1562.0,,,,o2ql6etsj,training_FR,,857599,15.0,blocks,,67.0,0.06537524325629898
375,375,977,207,17.0,24.0,,1.0,"[3, 1, 1, 4, 4, 4]","[3, 3, 7, 5, 5, 1]",11.5,,74.0,Green to Orange,Blue to Pink,,,,,943.399999976158,,,,o2ql6etsj,training_FR,,860548,16.0,blocks,,41.0,0.06537524325629898
376,376,978,208,42.0,34.0,,1.0,"[6, 7, 8, 5, 8, 8]","[8, 7, 7, 3, 3, 6]",11.5,,70.0,Green to Orange,Blue to Pink,,,,,726.1999999880791,,,,o2ql6etsj,training_FR,,863279,17.0,blocks,,76.0,0.06537524325629898
377,377,979,209,27.0,25.0,,1.0,"[3, 5, 5, 5, 6, 3]","[7, 1, 3, 5, 1, 8]",11.5,,70.0,Green to Orange,Blue to Pink,,,,,1341.300000011921,,,,o2ql6etsj,training_FR,,866625,18.0,blocks,,52.0,0.06537524325629898
378,378,980,210,18.0,27.0,,1.0,"[5, 4, 3, 1, 4, 1]","[4, 2, 8, 4, 4, 5]",11.5,,74.0,Green to Orange,Blue to Pink,,,,,719.5,,,,o2ql6etsj,training_FR,,869350,19.0,blocks,,45.0,0.06537524325629898
379,379,981,211,21.0,26.0,,1.0,"[2, 2, 2, 6, 8, 1]","[2, 1, 7, 8, 7, 1]",11.5,,74.0,Green to Orange,Blue to Pink,,,,,1349.0,,,,o2ql6etsj,training_FR,,872704,20.0,blocks,,47.0,0.06537524325629898
380,380,982,212,30.0,29.0,,1.0,"[2, 5, 5, 5, 7, 6]","[7, 3, 8, 3, 2, 6]",11.5,,70.0,Green to Orange,Blue to Pink,,,,,929.0,,,,o2ql6etsj,training_FR,,875638,21.0,blocks,,59.0,0.06537524325629898
381,381,983,213,28.0,24.0,,1.0,"[8, 3, 3, 5, 2, 7]","[5, 3, 1, 3, 8, 4]",11.5,,70.0,Green to Orange,Blue to Pink,,,,,1013.399999976158,,,,o2ql6etsj,training_FR,,878657,22.0,blocks,,52.0,0.06537524325629898
382,382,984,214,19.0,30.0,,1.0,"[5, 3, 1, 6, 2, 2]","[3, 8, 4, 3, 8, 4]",11.5,,74.0,Green to Orange,Blue to Pink,,,,,732.3999999761581,,,,o2ql6etsj,training_FR,,881394,23.0,blocks,,49.0,0.06537524325629898
383,383,985,215,34.0,28.0,,1.0,"[7, 5, 2, 6, 8, 6]","[2, 7, 7, 6, 2, 4]",11.5,,70.0,Green to Orange,Blue to Pink,,,,,893.3000000119209,,,,o2ql6etsj,training_FR,,884294,24.0,blocks,,62.0,0.06537524325629898
384,384,986,216,28.0,33.0,,1.0,"[6, 7, 2, 1, 7, 5]","[1, 8, 7, 5, 5, 7]",11.5,,74.0,Green to Orange,Blue to Pink,,,,,1017.3000000119208,,,,o2ql6etsj,training_FR,,887328,25.0,blocks,,61.0,0.06537524325629898
385,385,987,217,34.0,24.0,,1.0,"[8, 7, 5, 1, 8, 5]","[3, 3, 1, 4, 6, 7]",11.5,,70.0,Green to Orange,Blue to Pink,,,,,600.5,,,,o2ql6etsj,training_FR,,889936,26.0,blocks,,58.0,0.06537524325629898
386,386,988,218,25.0,27.0,,0.0,"[2, 6, 6, 2, 7, 2]","[5, 3, 6, 8, 4, 1]",11.5,,70.0,Green to Orange,Blue to Pink,,,,,920.2000000476836,,,,o2ql6etsj,training_FR,,892861,27.0,blocks,,52.0,0.06537524325629898
387,387,989,219,23.0,21.0,,1.0,"[1, 7, 2, 3, 7, 3]","[2, 6, 2, 3, 5, 3]",11.5,,70.0,Green to Orange,Blue to Pink,,,,,1116.899999976158,,,,o2ql6etsj,training_FR,,895982,28.0,blocks,,44.0,0.06537524325629898
388,388,990,220,43.0,35.0,,1.0,"[6, 8, 7, 7, 8, 7]","[4, 4, 8, 8, 6, 5]",11.5,,70.0,Green to Orange,Blue to Pink,,,,,631.6999999880791,,,,o2ql6etsj,training_FR,,898630,29.0,blocks,,78.0,0.06537524325629898
389,389,991,221,28.0,30.0,,1.0,"[4, 8, 1, 5, 6, 4]","[7, 6, 4, 5, 5, 3]",11.5,,74.0,Green to Orange,Blue to Pink,,,,,1167.300000011921,,,,o2ql6etsj,training_FR,,901803,30.0,blocks,,58.0,0.06537524325629898
390,390,992,222,21.0,32.0,,1.0,"[2, 1, 3, 8, 6, 1]","[6, 6, 7, 6, 3, 4]",11.5,,74.0,Green to Orange,Blue to Pink,,,,,1191.4000000357628,,,,o2ql6etsj,experiment_FR,,959617,1.0,blocks-exp,,53.0,0.06537524325629898
391,391,993,223,27.0,29.0,,1.0,"[6, 6, 3, 6, 2, 4]","[7, 6, 5, 2, 6, 3]",11.5,,74.0,Green to Orange,Blue to Pink,,,,,3468.599999964237,,,,o2ql6etsj,experiment_FR,,964090,2.0,blocks-exp,,56.0,0.06537524325629898
392,392,994,224,24.0,28.0,,1.0,"[2, 4, 3, 8, 3, 4]","[8, 1, 5, 3, 8, 3]",11.5,,74.0,Green to Orange,Blue to Pink,,,,,5977.800000011921,,,,o2ql6etsj,experiment_FR,,971072,3.0,blocks-exp,,52.0,0.06537524325629898
393,393,995,225,26.0,25.0,,0.0,"[2, 6, 6, 6, 2, 4]","[1, 8, 2, 1, 6, 7]",11.5,,74.0,Green to Orange,Blue to Pink,,,,,3348.699999988079,,,,o2ql6etsj,experiment_FR,,975424,4.0,blocks-exp,,51.0,0.06537524325629898
394,394,996,226,26.0,23.0,,1.0,"[6, 4, 7, 3, 1, 5]","[1, 2, 8, 6, 1, 5]",11.5,,70.0,Green to Orange,Blue to Pink,,,,,1721.399999976158,,,,o2ql6etsj,experiment_FR,,978151,5.0,blocks-exp,,49.0,0.06537524325629898
395,395,997,227,29.0,22.0,,1.0,"[5, 3, 6, 2, 8, 5]","[4, 6, 2, 3, 5, 2]",11.5,,70.0,Green to Orange,Blue to Pink,,,,,1011.5,,,,o2ql6etsj,experiment_FR,,980167,6.0,blocks-exp,,51.0,0.06537524325629898
396,396,998,228,35.0,30.0,,1.0,"[7, 8, 4, 5, 3, 8]","[7, 1, 6, 8, 6, 2]",11.5,,70.0,Green to Orange,Blue to Pink,,,,,1905.199999988079,,,,o2ql6etsj,experiment_FR,,983078,7.0,blocks-exp,,65.0,0.06537524325629898
397,397,999,229,30.0,33.0,,1.0,"[3, 1, 6, 5, 8, 7]","[5, 7, 4, 8, 3, 6]",11.5,,74.0,Green to Orange,Blue to Pink,,,,,949.899999976158,,,,o2ql6etsj,experiment_FR,,985034,8.0,blocks-exp,,63.0,0.06537524325629898
398,398,1000,230,33.0,29.0,,1.0,"[7, 7, 7, 2, 5, 5]","[7, 7, 4, 5, 4, 2]",11.5,,70.0,Green to Orange,Blue to Pink,,,,,2884.800000011921,,,,o2ql6etsj,experiment_FR,,988922,9.0,blocks-exp,,62.0,0.06537524325629898
399,399,1001,231,30.0,35.0,,1.0,"[8, 7, 3, 5, 1, 6]","[6, 7, 8, 3, 8, 3]",11.5,,74.0,Green to Orange,Blue to Pink,,,,,2106.600000023842,,,,o2ql6etsj,experiment_FR,,992034,10.0,blocks-exp,,65.0,0.06537524325629898
400,400,1002,232,20.0,25.0,,1.0,"[1, 1, 7, 5, 4, 2]","[3, 8, 6, 2, 3, 3]",11.5,,74.0,Green to Orange,Blue to Pink,,,,,2901.300000011921,,,,o2ql6etsj,experiment_FR,,995940,11.0,blocks-exp,,45.0,0.06537524325629898
401,401,1003,233,29.0,23.0,,1.0,"[4, 2, 7, 7, 1, 8]","[4, 1, 6, 8, 3, 1]",11.5,,70.0,Green to Orange,Blue to Pink,,,,,1137.100000023842,,,,o2ql6etsj,experiment_FR,,998082,12.0,blocks-exp,,52.0,0.06537524325629898
402,402,1004,234,25.0,18.0,,1.0,"[1, 4, 3, 3, 6, 8]","[2, 3, 4, 2, 5, 2]",11.5,,70.0,Green to Orange,Blue to Pink,,,,,3205.699999988079,,,,o2ql6etsj,experiment_FR,,1002292,13.0,blocks-exp,,43.0,0.06537524325629898
403,403,1005,235,25.0,31.0,,1.0,"[2, 1, 6, 8, 4, 4]","[2, 6, 3, 7, 5, 8]",11.5,,74.0,Green to Orange,Blue to Pink,,,,,2201.400000035763,,,,o2ql6etsj,experiment_FR,,1005498,14.0,blocks-exp,,56.0,0.06537524325629898
404,404,1006,236,28.0,20.0,,1.0,"[4, 6, 3, 2, 7, 6]","[4, 7, 3, 3, 2, 1]",11.5,,70.0,Green to Orange,Blue to Pink,,,,,2468.100000023842,,,,o2ql6etsj,experiment_FR,,1008971,15.0,blocks-exp,,48.0,0.06537524325629898
405,405,1007,237,38.0,31.0,,1.0,"[7, 8, 6, 3, 7, 7]","[7, 8, 1, 5, 6, 4]",11.5,,70.0,Green to Orange,Blue to Pink,,,,,1806.199999988079,,,,o2ql6etsj,experiment_FR,,1011781,16.0,blocks-exp,,69.0,0.06537524325629898
406,406,1008,238,21.0,24.0,,1.0,"[2, 8, 3, 5, 1, 2]","[6, 5, 4, 4, 4, 1]",11.5,,74.0,Green to Orange,Blue to Pink,,,,,4316.099999964237,,,,o2ql6etsj,experiment_FR,,1017101,17.0,blocks-exp,,45.0,0.06537524325629898
407,407,1009,239,28.0,28.0,,0.0,"[1, 6, 3, 5, 8, 5]","[5, 8, 5, 3, 6, 1]",11.5,,74.0,Green to Orange,Blue to Pink,,,,,8251.300000011921,,,,o2ql6etsj,experiment_FR,,1026357,18.0,blocks-exp,,56.0,0.06537524325629898
408,408,1010,240,30.0,25.0,,1.0,"[2, 4, 5, 6, 7, 6]","[2, 4, 7, 5, 4, 3]",11.5,,70.0,Green to Orange,Blue to Pink,,,,,1453.699999988079,,,,o2ql6etsj,experiment_FR,,1028817,19.0,blocks-exp,,55.0,0.06537524325629898
409,409,1011,241,20.0,14.0,,1.0,"[8, 4, 1, 2, 2, 3]","[1, 1, 3, 2, 4, 3]",11.5,,70.0,Green to Orange,Blue to Pink,,,,,2318.0,,,,o2ql6etsj,experiment_FR,,1032139,20.0,blocks-exp,,34.0,0.06537524325629898
410,410,1012,242,28.0,26.0,,1.0,"[6, 5, 1, 4, 8, 4]","[3, 7, 6, 3, 2, 5]",11.5,,70.0,Green to Orange,Blue to Pink,,,,,1657.699999988079,,,,o2ql6etsj,experiment_FR,,1034801,21.0,blocks-exp,,54.0,0.06537524325629898
411,411,1013,243,27.0,26.0,,0.0,"[3, 6, 4, 7, 2, 5]","[4, 5, 2, 3, 4, 8]",11.5,,74.0,Green to Orange,Blue to Pink,,,,,4950.5,,,,o2ql6etsj,experiment_FR,,1040756,22.0,blocks-exp,,53.0,0.06537524325629898
412,412,1014,244,18.0,13.0,,1.0,"[3, 3, 2, 3, 3, 4]","[1, 1, 2, 1, 6, 2]",11.5,,70.0,Green to Orange,Blue to Pink,,,,,6027.399999976158,,,,o2ql6etsj,experiment_FR,,1047792,23.0,blocks-exp,,31.0,0.06537524325629898
413,413,1015,245,24.0,30.0,,1.0,"[7, 3, 4, 2, 2, 6]","[5, 3, 6, 6, 7, 3]",11.5,,74.0,Green to Orange,Blue to Pink,,,,,1358.300000011921,,,,o2ql6etsj,experiment_FR,,1050156,24.0,blocks-exp,,54.0,0.06537524325629898
414,414,1016,246,19.0,28.0,,1.0,"[1, 4, 2, 5, 2, 5]","[3, 3, 8, 6, 5, 3]",11.5,,74.0,Green to Orange,Blue to Pink,,,,,1697.5,,,,o2ql6etsj,experiment_FR,,1052858,25.0,blocks-exp,,47.0,0.06537524325629898
415,415,1017,247,27.0,23.0,,1.0,"[6, 2, 2, 4, 5, 8]","[4, 4, 7, 1, 1, 6]",11.5,,70.0,Green to Orange,Blue to Pink,,,,,4442.800000011921,,,,o2ql6etsj,experiment_FR,,1058306,26.0,blocks-exp,,50.0,0.06537524325629898
416,416,1018,248,26.0,29.0,,1.0,"[8, 3, 3, 2, 2, 8]","[8, 4, 1, 7, 4, 5]",11.5,,74.0,Green to Orange,Blue to Pink,,,,,1924.6000000238416,,,,o2ql6etsj,experiment_FR,,1061235,27.0,blocks-exp,,55.0,0.06537524325629898
417,417,1019,249,35.0,29.0,,1.0,"[7, 4, 8, 6, 6, 4]","[4, 3, 4, 4, 8, 6]",11.5,,70.0,Green to Orange,Blue to Pink,,,,,1035.5,,,,o2ql6etsj,experiment_FR,,1063275,28.0,blocks-exp,,64.0,0.06537524325629898
418,418,1020,250,35.0,22.0,,1.0,"[7, 4, 7, 8, 7, 2]","[8, 2, 1, 7, 2, 2]",11.5,,70.0,Green to Orange,Blue to Pink,,,,,991.8000000119208,,,,o2ql6etsj,experiment_FR,,1065270,29.0,blocks-exp,,57.0,0.06537524325629898
419,419,1021,251,33.0,33.0,,1.0,"[8, 1, 8, 6, 5, 5]","[4, 6, 3, 7, 7, 6]",11.5,,74.0,Green to Orange,Blue to Pink,,,,,1294.600000023842,,,,o2ql6etsj,experiment_FR,,1067570,30.0,blocks-exp,,66.0,0.06537524325629898
420,420,1022,252,32.0,24.0,,1.0,"[3, 4, 8, 4, 5, 8]","[6, 1, 2, 7, 2, 6]",11.5,,70.0,Green to Orange,Blue to Pink,,,,,2223.0,,,,o2ql6etsj,experiment_FR,,1070797,31.0,blocks-exp,,56.0,0.06537524325629898
421,421,1023,253,19.0,23.0,,1.0,"[1, 3, 2, 3, 7, 3]","[6, 8, 4, 1, 2, 2]",11.5,,74.0,Green to Orange,Blue to Pink,,,,,4497.699999988079,,,,o2ql6etsj,experiment_FR,,1076299,32.0,blocks-exp,,42.0,0.06537524325629898
422,422,1024,254,16.0,24.0,,1.0,"[2, 5, 1, 5, 1, 2]","[1, 3, 1, 6, 7, 6]",11.5,,74.0,Green to Orange,Blue to Pink,,,,,5462.300000011921,,,,o2ql6etsj,experiment_FR,,1082768,33.0,blocks-exp,,40.0,0.06537524325629898
423,423,1025,255,31.0,36.0,,1.0,"[3, 8, 4, 6, 7, 3]","[8, 8, 7, 5, 6, 2]",11.5,,74.0,Green to Orange,Blue to Pink,,,,,1409.399999976158,,,,o2ql6etsj,experiment_FR,,1085182,34.0,blocks-exp,,67.0,0.06537524325629898
424,424,1026,256,20.0,17.0,,1.0,"[6, 3, 2, 4, 2, 3]","[2, 1, 4, 2, 7, 1]",11.5,,70.0,Green to Orange,Blue to Pink,,,,,1481.0,,,,o2ql6etsj,experiment_FR,,1087673,35.0,blocks-exp,,37.0,0.06537524325629898
425,425,1027,257,21.0,32.0,,1.0,"[4, 1, 2, 3, 8, 3]","[6, 8, 2, 4, 7, 5]",11.5,,74.0,Green to Orange,Blue to Pink,,,,,789.5999999642372,,,,o2ql6etsj,experiment_FR,,1089466,36.0,blocks-exp,,53.0,0.06537524325629898
426,426,1028,258,25.0,27.0,,0.0,"[2, 2, 3, 6, 8, 4]","[1, 4, 7, 7, 4, 4]",11.5,,70.0,Green to Orange,Blue to Pink,,,,,29270.69999998808,,,,o2ql6etsj,experiment_FR,,1119741,37.0,blocks-exp,,52.0,0.06537524325629898
427,427,1029,259,30.0,25.0,,1.0,"[2, 4, 5, 8, 3, 8]","[5, 8, 2, 4, 3, 3]",11.5,,70.0,Green to Orange,Blue to Pink,,,,,1275.5,,,,o2ql6etsj,experiment_FR,,1122022,38.0,blocks-exp,,55.0,0.06537524325629898
428,428,1030,260,26.0,26.0,,0.0,"[7, 7, 1, 4, 2, 5]","[3, 8, 3, 8, 1, 3]",11.5,,70.0,Green to Orange,Blue to Pink,,,,,3995.5,,,,o2ql6etsj,experiment_FR,,1127022,39.0,blocks-exp,,52.0,0.06537524325629898
429,429,1031,261,17.0,23.0,,1.0,"[3, 3, 1, 3, 2, 5]","[1, 4, 6, 8, 3, 1]",11.5,,74.0,Green to Orange,Blue to Pink,,,,,1484.699999988079,,,,o2ql6etsj,experiment_FR,,1129512,40.0,blocks-exp,,40.0,0.06537524325629898
430,430,1032,262,18.0,19.0,,1.0,"[1, 1, 7, 1, 6, 2]","[2, 1, 8, 1, 1, 6]",11.5,,74.0,Green to Orange,Blue to Pink,,,,,3822.899999976158,,,,o2ql6etsj,experiment_FR,,1134339,41.0,blocks-exp,,37.0,0.06537524325629898
431,431,1033,263,18.0,25.0,,1.0,"[1, 8, 6, 1, 1, 1]","[5, 1, 4, 4, 8, 3]",11.5,,74.0,Green to Orange,Blue to Pink,,,,,961.7999999523164,,,,o2ql6etsj,experiment_FR,,1136305,42.0,blocks-exp,,43.0,0.06537524325629898
432,432,1034,264,19.0,27.0,,1.0,"[2, 1, 1, 4, 3, 8]","[4, 4, 1, 5, 6, 7]",11.5,,74.0,Green to Orange,Blue to Pink,,,,,806.0,,,,o2ql6etsj,experiment_FR,,1138114,43.0,blocks-exp,,46.0,0.06537524325629898
433,433,1035,265,29.0,23.0,,1.0,"[8, 6, 6, 1, 6, 2]","[1, 4, 4, 4, 4, 6]",11.5,,70.0,Green to Orange,Blue to Pink,,,,,764.6999999880791,,,,o2ql6etsj,experiment_FR,,1139882,44.0,blocks-exp,,52.0,0.06537524325629898
434,434,1036,266,21.0,34.0,,1.0,"[5, 3, 5, 3, 4, 1]","[6, 8, 5, 6, 2, 7]",11.5,,74.0,Green to Orange,Blue to Pink,,,,,683.9000000357628,,,,o2ql6etsj,experiment_FR,,1141571,45.0,blocks-exp,,55.0,0.06537524325629898
435,435,1037,267,22.0,26.0,,1.0,"[3, 1, 5, 3, 3, 7]","[3, 4, 3, 4, 8, 4]",11.5,,74.0,Green to Orange,Blue to Pink,,,,,1447.0999999642372,,,,o2ql6etsj,experiment_FR,,1144024,46.0,blocks-exp,,48.0,0.06537524325629898
436,436,1038,268,33.0,30.0,,1.0,"[8, 7, 4, 4, 2, 8]","[6, 7, 6, 1, 4, 6]",11.5,,70.0,Green to Orange,Blue to Pink,,,,,1957.4000000357628,,,,o2ql6etsj,experiment_FR,,1146986,47.0,blocks-exp,,63.0,0.06537524325629898
437,437,1039,269,16.0,29.0,,1.0,"[1, 1, 1, 4, 6, 3]","[6, 7, 5, 3, 2, 6]",11.5,,74.0,Green to Orange,Blue to Pink,,,,,812.4000000357628,,,,o2ql6etsj,experiment_FR,,1148803,48.0,blocks-exp,,45.0,0.06537524325629898
438,438,1040,270,21.0,30.0,,1.0,"[3, 8, 1, 4, 1, 4]","[2, 8, 5, 7, 1, 7]",11.5,,74.0,Green to Orange,Blue to Pink,,,,,1675.0,,,,o2ql6etsj,experiment_FR,,1151483,49.0,blocks-exp,,51.0,0.06537524325629898
439,439,1041,271,25.0,22.0,,1.0,"[8, 3, 4, 3, 4, 3]","[8, 1, 8, 1, 2, 2]",11.5,,70.0,Green to Orange,Blue to Pink,,,,,2085.300000011921,,,,o2ql6etsj,experiment_FR,,1154573,50.0,blocks-exp,,47.0,0.06537524325629898
440,440,1042,272,28.0,31.0,,1.0,"[1, 1, 5, 6, 8, 7]","[8, 4, 5, 5, 8, 1]",11.5,,74.0,Green to Orange,Blue to Pink,,,,,1631.7999999523165,,,,o2ql6etsj,experiment_FR,,1157209,51.0,blocks-exp,,59.0,0.06537524325629898
441,441,1043,273,27.0,38.0,,1.0,"[6, 3, 3, 6, 7, 2]","[7, 7, 5, 8, 3, 8]",11.5,,74.0,Green to Orange,Blue to Pink,,,,,1422.2000000476835,,,,o2ql6etsj,experiment_FR,,1159637,52.0,blocks-exp,,65.0,0.06537524325629898
442,442,1044,274,29.0,28.0,,1.0,"[4, 7, 7, 5, 3, 3]","[6, 2, 6, 6, 6, 2]",11.5,,70.0,Green to Orange,Blue to Pink,,,,,1667.7000000476835,,,,o2ql6etsj,experiment_FR,,1162309,53.0,blocks-exp,,57.0,0.06537524325629898
443,443,1045,275,27.0,35.0,,1.0,"[4, 2, 5, 5, 8, 3]","[6, 2, 8, 7, 5, 7]",11.5,,74.0,Green to Orange,Blue to Pink,,,,,1461.600000023842,,,,o2ql6etsj,experiment_FR,,1164775,54.0,blocks-exp,,62.0,0.06537524325629898
444,444,1046,276,27.0,27.0,,0.0,"[6, 5, 3, 4, 6, 3]","[6, 8, 4, 4, 3, 2]",11.5,,70.0,Green to Orange,Blue to Pink,,,,,1927.6000000238416,,,,o2ql6etsj,experiment_FR,,1167706,55.0,blocks-exp,,54.0,0.06537524325629898
445,445,1047,277,33.0,27.0,,1.0,"[7, 5, 6, 5, 7, 3]","[1, 8, 8, 3, 4, 3]",11.5,,70.0,Green to Orange,Blue to Pink,,,,,933.8000000119208,,,,o2ql6etsj,experiment_FR,,1169644,56.0,blocks-exp,,60.0,0.06537524325629898
446,446,1048,278,26.0,34.0,,1.0,"[4, 6, 1, 6, 8, 1]","[5, 5, 5, 8, 4, 7]",11.5,,74.0,Green to Orange,Blue to Pink,,,,,809.1000000238419,,,,o2ql6etsj,experiment_FR,,1171458,57.0,blocks-exp,,60.0,0.06537524325629898
447,447,1049,279,22.0,34.0,,1.0,"[1, 6, 5, 6, 3, 1]","[4, 7, 3, 8, 7, 5]",11.5,,74.0,Green to Orange,Blue to Pink,,,,,645.3999999761581,,,,o2ql6etsj,experiment_FR,,1173108,58.0,blocks-exp,,56.0,0.06537524325629898
448,448,1050,280,20.0,19.0,,1.0,"[5, 4, 4, 4, 1, 2]","[2, 6, 1, 3, 2, 5]",11.5,,70.0,Green to Orange,Blue to Pink,,,,,3035.899999976158,,,,o2ql6etsj,experiment_FR,,1177149,59.0,blocks-exp,,39.0,0.06537524325629898
449,449,1051,281,25.0,20.0,,1.0,"[8, 3, 1, 7, 2, 4]","[2, 6, 2, 1, 6, 3]",11.5,,70.0,Green to Orange,Blue to Pink,,,,,1149.0,,,,o2ql6etsj,experiment_FR,,1179303,60.0,blocks-exp,,45.0,0.06537524325629898
450,450,1052,282,30.0,22.0,,1.0,"[7, 2, 5, 3, 8, 5]","[6, 5, 3, 3, 3, 2]",11.5,,70.0,Green to Orange,Blue to Pink,,,,,831.1999999880791,,,,o2ql6etsj,experiment_FR,,1181142,61.0,blocks-exp,,52.0,0.06537524325629898
451,451,1053,283,25.0,25.0,,0.0,"[8, 4, 1, 2, 4, 6]","[2, 4, 5, 2, 6, 6]",11.5,,74.0,Green to Orange,Blue to Pink,,,,,1428.5,,,,o2ql6etsj,experiment_FR,,1183573,62.0,blocks-exp,,50.0,0.06537524325629898
452,452,1054,284,33.0,18.0,,1.0,"[5, 7, 2, 6, 5, 8]","[1, 7, 1, 5, 3, 1]",11.5,,70.0,Green to Orange,Blue to Pink,,,,,718.1999999880791,,,,o2ql6etsj,experiment_FR,,1185297,63.0,blocks-exp,,51.0,0.06537524325629898
453,453,1055,285,27.0,34.0,,1.0,"[3, 5, 3, 7, 4, 5]","[4, 8, 6, 4, 7, 5]",11.5,,74.0,Green to Orange,Blue to Pink,,,,,588.1000000238419,,,,o2ql6etsj,experiment_FR,,1186889,64.0,blocks-exp,,61.0,0.06537524325629898
454,454,1056,286,33.0,28.0,,1.0,"[4, 8, 2, 7, 5, 7]","[5, 3, 8, 3, 7, 2]",11.5,,70.0,Green to Orange,Blue to Pink,,,,,2919.5,,,,o2ql6etsj,experiment_FR,,1190821,65.0,blocks-exp,,61.0,0.06537524325629898
455,455,1057,287,23.0,26.0,,0.0,"[7, 6, 5, 1, 1, 3]","[5, 7, 2, 2, 2, 8]",11.5,,70.0,Green to Orange,Blue to Pink,,,,,1690.800000011921,,,,o2ql6etsj,experiment_FR,,1193516,66.0,blocks-exp,,49.0,0.06537524325629898
456,456,1058,288,12.0,27.0,,1.0,"[2, 2, 3, 3, 1, 1]","[1, 3, 5, 7, 5, 6]",11.5,,74.0,Green to Orange,Blue to Pink,,,,,582.8000000119209,,,,o2ql6etsj,experiment_FR,,1195104,67.0,blocks-exp,,39.0,0.06537524325629898
457,457,1059,289,16.0,17.0,,0.0,"[1, 1, 5, 1, 6, 2]","[3, 1, 4, 1, 2, 6]",11.5,,70.0,Green to Orange,Blue to Pink,,,,,1740.0,,,,o2ql6etsj,experiment_FR,,1197848,68.0,blocks-exp,,33.0,0.06537524325629898
458,458,1060,290,32.0,29.0,,1.0,"[8, 7, 5, 6, 5, 1]","[2, 5, 7, 7, 4, 4]",11.5,,70.0,Green to Orange,Blue to Pink,,,,,530.6999999880791,,,,o2ql6etsj,experiment_FR,,1199384,69.0,blocks-exp,,61.0,0.06537524325629898
459,459,1061,291,28.0,32.0,,1.0,"[8, 2, 4, 4, 3, 7]","[4, 8, 2, 8, 2, 8]",11.5,,74.0,Green to Orange,Blue to Pink,,,,,3106.2999999523163,,,,o2ql6etsj,experiment_FR,,1203503,70.0,blocks-exp,,60.0,0.06537524325629898
460,460,1062,292,31.0,25.0,,1.0,"[4, 6, 4, 7, 7, 3]","[7, 5, 3, 4, 3, 3]",11.5,,70.0,Green to Orange,Blue to Pink,,,,,1111.300000011921,,,,o2ql6etsj,experiment_FR,,1205619,71.0,blocks-exp,,56.0,0.06537524325629898
461,461,1063,293,26.0,24.0,,1.0,"[2, 8, 4, 2, 4, 6]","[5, 1, 1, 5, 5, 7]",11.5,,70.0,Green to Orange,Blue to Pink,,,,,12131.100000023842,,,,o2ql6etsj,experiment_FR,,1218755,72.0,blocks-exp,,50.0,0.06537524325629898
462,462,1064,294,34.0,17.0,,1.0,"[7, 4, 2, 5, 8, 8]","[4, 1, 6, 1, 4, 1]",11.5,,70.0,Green to Orange,Blue to Pink,,,,,787.7000000476837,,,,o2ql6etsj,experiment_FR,,1220547,73.0,blocks-exp,,51.0,0.06537524325629898
463,463,1065,295,32.0,27.0,,1.0,"[7, 3, 8, 5, 1, 8]","[3, 5, 8, 2, 8, 1]",11.5,,70.0,Green to Orange,Blue to Pink,,,,,2436.200000047684,,,,o2ql6etsj,experiment_FR,,1223989,74.0,blocks-exp,,59.0,0.06537524325629898
464,464,1066,296,42.0,33.0,,1.0,"[7, 7, 8, 7, 5, 8]","[7, 1, 6, 7, 8, 4]",11.5,,70.0,Green to Orange,Blue to Pink,,,,,805.8999999761581,,,,o2ql6etsj,experiment_FR,,1225799,75.0,blocks-exp,,75.0,0.06537524325629898
465,465,1067,297,31.0,18.0,,1.0,"[5, 4, 8, 6, 5, 3]","[1, 8, 1, 4, 1, 3]",11.5,,70.0,Green to Orange,Blue to Pink,,,,,840.5,,,,o2ql6etsj,experiment_FR,,1227644,76.0,blocks-exp,,49.0,0.06537524325629898
466,466,1068,298,24.0,35.0,,1.0,"[7, 2, 6, 2, 2, 5]","[8, 6, 7, 1, 8, 5]",11.5,,74.0,Green to Orange,Blue to Pink,,,,,761.0,,,,o2ql6etsj,experiment_FR,,1229416,77.0,blocks-exp,,59.0,0.06537524325629898
467,467,1069,299,21.0,22.0,,1.0,"[1, 4, 1, 7, 1, 7]","[5, 1, 5, 1, 7, 3]",11.5,,74.0,Green to Orange,Blue to Pink,,,,,2747.899999976158,,,,o2ql6etsj,experiment_FR,,1233168,78.0,blocks-exp,,43.0,0.06537524325629898
468,468,1070,300,21.0,29.0,,1.0,"[1, 3, 6, 4, 4, 3]","[7, 1, 3, 4, 6, 8]",11.5,,74.0,Green to Orange,Blue to Pink,,,,,1254.199999988079,,,,o2ql6etsj,experiment_FR,,1235429,79.0,blocks-exp,,50.0,0.06537524325629898
469,469,1071,301,41.0,19.0,,1.0,"[8, 6, 6, 6, 8, 7]","[2, 1, 5, 2, 4, 5]",11.5,,70.0,Green to Orange,Blue to Pink,,,,,584.1999999880791,,,,o2ql6etsj,experiment_FR,,1237017,80.0,blocks-exp,,60.0,0.06537524325629898
470,470,1072,302,39.0,23.0,,1.0,"[8, 6, 3, 6, 8, 8]","[1, 3, 4, 2, 8, 5]",11.5,,70.0,Green to Orange,Blue to Pink,,,,,562.5,,,,o2ql6etsj,experiment_FR,,1238583,81.0,blocks-exp,,62.0,0.06537524325629898
471,471,1073,303,30.0,26.0,,1.0,"[5, 3, 6, 1, 8, 7]","[7, 1, 1, 6, 8, 3]",11.5,,70.0,Green to Orange,Blue to Pink,,,,,2849.699999988079,,,,o2ql6etsj,experiment_FR,,1242439,82.0,blocks-exp,,56.0,0.06537524325629898
472,472,1074,304,23.0,26.0,,1.0,"[1, 4, 4, 3, 5, 6]","[3, 5, 3, 5, 3, 7]",11.5,,74.0,Green to Orange,Blue to Pink,,,,,1303.300000011921,,,,o2ql6etsj,experiment_FR,,1244747,83.0,blocks-exp,,49.0,0.06537524325629898
473,473,1075,305,26.0,27.0,,1.0,"[5, 3, 6, 1, 7, 4]","[5, 6, 3, 4, 5, 4]",11.5,,74.0,Green to Orange,Blue to Pink,,,,,1578.300000011921,,,,o2ql6etsj,experiment_FR,,1247331,84.0,blocks-exp,,53.0,0.06537524325629898
474,474,1076,306,24.0,20.0,,1.0,"[2, 2, 1, 7, 4, 8]","[1, 3, 1, 7, 7, 1]",11.5,,70.0,Green to Orange,Blue to Pink,,,,,41340.30000001192,,,,o2ql6etsj,experiment_FR,,1289676,85.0,blocks-exp,,44.0,0.06537524325629898
475,475,1077,307,19.0,26.0,,1.0,"[2, 5, 6, 1, 1, 4]","[2, 4, 3, 6, 8, 3]",11.5,,74.0,Green to Orange,Blue to Pink,,,,,807.1000000238419,,,,o2ql6etsj,experiment_FR,,1291488,86.0,blocks-exp,,45.0,0.06537524325629898
