,index,Unnamed: 0,Left_sum,Right_sum,acc2_VB,accuracy,arr_L,arr_R,compensation,first_rainbow,key_press,rainbow1,rainbow2,randidx_FR,randidx_VB,response,reward_val_VB,rt,second_rainbow,slider_start,stimulus,subject,task,testvalue,time_elapsed,trialN,trial_type,value
0,2,2,30.0,33.0,,1.0,"[5, 4, 1, 8, 5, 7]","[4, 7, 5, 8, 3, 6]",11.5,,74.0,Green to Orange,Pink to Blue,,,,,7387.099999994039,,,,hwrblsy3h,training_FR,,119720,1.0,blocks,
1,3,3,27.0,34.0,,1.0,"[3, 2, 4, 8, 3, 7]","[6, 5, 4, 8, 4, 7]",11.5,,74.0,Green to Orange,Pink to Blue,,,,,4552.300000011921,,,,hwrblsy3h,training_FR,,126285,2.0,blocks,
2,4,4,18.0,32.0,,1.0,"[1, 5, 1, 5, 5, 1]","[3, 4, 6, 8, 6, 5]",11.5,,74.0,Green to Orange,Pink to Blue,,,,,1198.9000000059605,,,,hwrblsy3h,training_FR,,129496,3.0,blocks,
3,5,5,24.0,25.0,,1.0,"[6, 1, 3, 7, 2, 5]","[1, 1, 5, 4, 7, 7]",11.5,,74.0,Green to Orange,Pink to Blue,,,,,3185.5999999940395,,,,hwrblsy3h,training_FR,,134703,4.0,blocks,
4,6,6,33.0,25.0,,1.0,"[6, 8, 6, 5, 6, 2]","[2, 1, 6, 6, 5, 5]",11.5,,70.0,Green to Orange,Pink to Blue,,,,,1310.5,,,,hwrblsy3h,training_FR,,138028,5.0,blocks,
5,7,7,23.0,32.0,,1.0,"[5, 2, 5, 1, 6, 4]","[8, 2, 4, 2, 8, 8]",11.5,,74.0,Green to Orange,Pink to Blue,,,,,783.4000000059605,,,,hwrblsy3h,training_FR,,140826,6.0,blocks,
6,8,8,24.0,14.0,,1.0,"[4, 3, 7, 1, 8, 1]","[7, 2, 1, 2, 1, 1]",11.5,,70.0,Green to Orange,Pink to Blue,,,,,1311.2000000178814,,,,hwrblsy3h,training_FR,,144153,7.0,blocks,
7,9,9,18.0,25.0,,1.0,"[2, 6, 5, 1, 2, 2]","[4, 5, 8, 3, 2, 3]",11.5,,74.0,Green to Orange,Pink to Blue,,,,,1647.7000000178814,,,,hwrblsy3h,training_FR,,147812,8.0,blocks,
8,10,10,22.0,31.0,,1.0,"[1, 6, 1, 3, 3, 8]","[8, 1, 6, 6, 3, 7]",11.5,,74.0,Green to Orange,Pink to Blue,,,,,1201.9000000059605,,,,hwrblsy3h,training_FR,,151025,9.0,blocks,
9,11,11,20.0,18.0,,0.0,"[8, 2, 1, 3, 2, 4]","[2, 7, 1, 1, 2, 5]",11.5,,74.0,Green to Orange,Pink to Blue,,,,,4242.199999988079,,,,hwrblsy3h,training_FR,,157283,10.0,blocks,
10,12,12,19.0,22.0,,0.0,"[1, 6, 2, 7, 1, 2]","[5, 3, 5, 2, 2, 5]",11.5,,70.0,Green to Orange,Pink to Blue,,,,,1489.300000011921,,,,hwrblsy3h,training_FR,,160784,11.0,blocks,
11,13,13,27.0,32.0,,1.0,"[1, 2, 3, 6, 7, 8]","[7, 6, 2, 2, 7, 8]",11.5,,74.0,Green to Orange,Pink to Blue,,,,,1059.300000011921,,,,hwrblsy3h,training_FR,,163854,12.0,blocks,
12,14,14,26.0,25.0,,0.0,"[8, 4, 2, 3, 3, 6]","[4, 5, 7, 2, 4, 3]",11.5,,74.0,Green to Orange,Pink to Blue,,,,,1997.0999999940395,,,,hwrblsy3h,training_FR,,167865,13.0,blocks,
13,15,15,26.0,30.0,,1.0,"[5, 1, 8, 4, 7, 1]","[7, 8, 2, 5, 3, 5]",11.5,,74.0,Green to Orange,Pink to Blue,,,,,1371.100000023842,,,,hwrblsy3h,training_FR,,171249,14.0,blocks,
14,16,16,23.0,27.0,,0.0,"[6, 2, 1, 1, 8, 5]","[2, 7, 5, 4, 5, 4]",11.5,,70.0,Green to Orange,Pink to Blue,,,,,1263.4000000059605,,,,hwrblsy3h,training_FR,,174526,15.0,blocks,
15,17,17,20.0,28.0,,0.0,"[1, 6, 2, 1, 3, 7]","[7, 1, 6, 3, 4, 7]",11.5,,70.0,Green to Orange,Pink to Blue,,,,,2072.300000011921,,,,hwrblsy3h,training_FR,,178611,16.0,blocks,
16,18,18,16.0,28.0,,1.0,"[7, 1, 1, 3, 3, 1]","[8, 3, 2, 6, 2, 7]",11.5,,74.0,Green to Orange,Pink to Blue,,,,,807.5,,,,hwrblsy3h,training_FR,,181438,17.0,blocks,
17,19,19,32.0,13.0,,1.0,"[5, 5, 8, 4, 2, 8]","[1, 4, 1, 2, 4, 1]",11.5,,70.0,Green to Orange,Pink to Blue,,,,,621.8000000119209,,,,hwrblsy3h,training_FR,,184073,18.0,blocks,
18,20,20,20.0,25.0,,1.0,"[4, 4, 2, 4, 2, 4]","[5, 4, 5, 4, 5, 2]",11.5,,74.0,Green to Orange,Pink to Blue,,,,,1195.199999988079,,,,hwrblsy3h,training_FR,,187283,19.0,blocks,
19,21,21,18.0,28.0,,1.0,"[1, 7, 5, 1, 2, 2]","[5, 7, 4, 1, 6, 5]",11.5,,74.0,Green to Orange,Pink to Blue,,,,,1163.699999988079,,,,hwrblsy3h,training_FR,,190460,20.0,blocks,
20,22,22,26.0,27.0,,1.0,"[5, 2, 8, 4, 1, 6]","[8, 5, 5, 1, 2, 6]",11.5,,74.0,Green to Orange,Pink to Blue,,,,,1998.5,,,,hwrblsy3h,training_FR,,194470,21.0,blocks,
21,23,23,25.0,32.0,,1.0,"[5, 8, 1, 4, 5, 2]","[7, 6, 8, 4, 5, 2]",11.5,,74.0,Green to Orange,Pink to Blue,,,,,1460.5999999940395,,,,hwrblsy3h,training_FR,,197941,22.0,blocks,
22,24,24,28.0,27.0,,0.0,"[4, 7, 4, 6, 1, 6]","[5, 4, 5, 8, 4, 1]",11.5,,74.0,Green to Orange,Pink to Blue,,,,,965.4000000059604,,,,hwrblsy3h,training_FR,,200918,23.0,blocks,
23,25,25,34.0,19.0,,1.0,"[7, 8, 6, 4, 8, 1]","[2, 1, 3, 7, 4, 2]",11.5,,70.0,Green to Orange,Pink to Blue,,,,,666.4000000059605,,,,hwrblsy3h,training_FR,,203595,24.0,blocks,
24,26,26,33.0,27.0,,1.0,"[8, 7, 5, 7, 1, 5]","[8, 2, 7, 2, 3, 5]",11.5,,70.0,Green to Orange,Pink to Blue,,,,,614.7000000178814,,,,hwrblsy3h,training_FR,,206225,25.0,blocks,
25,27,27,27.0,25.0,,1.0,"[5, 4, 6, 3, 1, 8]","[2, 3, 6, 2, 5, 7]",11.5,,70.0,Green to Orange,Pink to Blue,,,,,559.0999999940395,,,,hwrblsy3h,training_FR,,208797,26.0,blocks,
26,28,28,28.0,24.0,,1.0,"[4, 4, 5, 7, 3, 5]","[6, 3, 3, 1, 7, 4]",11.5,,70.0,Green to Orange,Pink to Blue,,,,,891.1999999880791,,,,hwrblsy3h,training_FR,,211699,27.0,blocks,
27,29,29,31.0,26.0,,1.0,"[5, 5, 5, 5, 3, 8]","[4, 4, 8, 5, 2, 3]",11.5,,70.0,Green to Orange,Pink to Blue,,,,,650.1999999880791,,,,hwrblsy3h,training_FR,,214364,28.0,blocks,
28,30,30,26.0,20.0,,1.0,"[6, 1, 4, 7, 7, 1]","[3, 5, 1, 2, 3, 6]",11.5,,70.0,Green to Orange,Pink to Blue,,,,,585.1999999880791,,,,hwrblsy3h,training_FR,,216959,29.0,blocks,
29,31,31,24.0,21.0,,1.0,"[2, 4, 5, 3, 7, 3]","[3, 6, 1, 2, 2, 7]",11.5,,70.0,Green to Orange,Pink to Blue,,,,,880.0,,,,hwrblsy3h,training_FR,,219849,30.0,blocks,
30,32,32,30.0,29.0,,1.0,"[7, 7, 3, 7, 3, 3]","[3, 8, 2, 7, 6, 3]",11.5,,70.0,Green to Orange,Pink to Blue,,,,,691.3000000119209,,,,hwrblsy3h,experiment_FR,,314181,1.0,blocks-exp,
31,33,33,33.0,30.0,,1.0,"[4, 4, 7, 2, 8, 8]","[4, 6, 6, 7, 1, 6]",11.5,,70.0,Green to Orange,Pink to Blue,,,,,1019.5999999940396,,,,hwrblsy3h,experiment_FR,,316212,2.0,blocks-exp,
32,34,34,24.0,16.0,,1.0,"[6, 1, 7, 6, 1, 3]","[2, 2, 1, 5, 1, 5]",11.5,,70.0,Green to Orange,Pink to Blue,,,,,1172.5,,,,hwrblsy3h,experiment_FR,,318394,3.0,blocks-exp,
33,35,35,30.0,21.0,,1.0,"[2, 7, 1, 5, 8, 7]","[1, 4, 3, 4, 1, 8]",11.5,,70.0,Green to Orange,Pink to Blue,,,,,610.7999999821186,,,,hwrblsy3h,experiment_FR,,320014,4.0,blocks-exp,
34,36,36,22.0,26.0,,1.0,"[3, 3, 3, 1, 5, 7]","[8, 3, 4, 4, 4, 3]",11.5,,74.0,Green to Orange,Pink to Blue,,,,,1280.699999988079,,,,hwrblsy3h,experiment_FR,,322307,5.0,blocks-exp,
35,37,37,28.0,24.0,,1.0,"[6, 3, 4, 4, 7, 4]","[4, 1, 5, 2, 6, 6]",11.5,,70.0,Green to Orange,Pink to Blue,,,,,1303.0,,,,hwrblsy3h,experiment_FR,,324623,6.0,blocks-exp,
36,38,38,33.0,25.0,,1.0,"[7, 8, 7, 5, 2, 4]","[3, 8, 6, 4, 1, 3]",11.5,,70.0,Green to Orange,Pink to Blue,,,,,568.3000000119209,,,,hwrblsy3h,experiment_FR,,326198,7.0,blocks-exp,
37,39,39,21.0,32.0,,1.0,"[8, 3, 3, 2, 1, 4]","[5, 8, 2, 7, 6, 4]",11.5,,74.0,Green to Orange,Pink to Blue,,,,,673.0999999940395,,,,hwrblsy3h,experiment_FR,,327882,8.0,blocks-exp,
38,40,40,26.0,26.0,,1.0,"[1, 8, 3, 3, 3, 8]","[2, 7, 7, 5, 1, 4]",11.5,,70.0,Green to Orange,Pink to Blue,,,,,4840.700000017881,,,,hwrblsy3h,experiment_FR,,333732,9.0,blocks-exp,
39,41,41,22.0,27.0,,1.0,"[6, 6, 3, 1, 1, 5]","[6, 5, 5, 2, 7, 2]",11.5,,74.0,Green to Orange,Pink to Blue,,,,,3817.59999999404,,,,hwrblsy3h,experiment_FR,,338567,10.0,blocks-exp,
40,42,42,22.0,35.0,,1.0,"[3, 4, 1, 4, 8, 2]","[8, 7, 5, 1, 6, 8]",11.5,,74.0,Green to Orange,Pink to Blue,,,,,832.5,,,,hwrblsy3h,experiment_FR,,340412,11.0,blocks-exp,
41,43,43,34.0,26.0,,1.0,"[7, 5, 5, 4, 5, 8]","[1, 6, 6, 1, 4, 8]",11.5,,70.0,Green to Orange,Pink to Blue,,,,,1579.2999999821186,,,,hwrblsy3h,experiment_FR,,343002,12.0,blocks-exp,
42,44,44,37.0,30.0,,1.0,"[8, 3, 6, 7, 7, 6]","[6, 7, 4, 4, 7, 2]",11.5,,70.0,Green to Orange,Pink to Blue,,,,,2528.800000011921,,,,hwrblsy3h,experiment_FR,,346543,13.0,blocks-exp,
43,45,45,26.0,22.0,,1.0,"[6, 6, 1, 3, 8, 2]","[3, 5, 7, 2, 1, 4]",11.5,,70.0,Green to Orange,Pink to Blue,,,,,1052.5999999940395,,,,hwrblsy3h,experiment_FR,,348603,14.0,blocks-exp,
44,46,46,23.0,26.0,,1.0,"[6, 1, 5, 7, 1, 3]","[2, 7, 2, 2, 8, 5]",11.5,,74.0,Green to Orange,Pink to Blue,,,,,1113.4000000059605,,,,hwrblsy3h,experiment_FR,,350729,15.0,blocks-exp,
45,47,47,27.0,26.0,,0.0,"[6, 2, 5, 2, 7, 5]","[7, 7, 1, 2, 7, 2]",11.5,,74.0,Green to Orange,Pink to Blue,,,,,1168.5,,,,hwrblsy3h,experiment_FR,,352905,16.0,blocks-exp,
46,48,48,16.0,17.0,,1.0,"[6, 1, 1, 5, 1, 2]","[1, 2, 6, 3, 4, 1]",11.5,,74.0,Green to Orange,Pink to Blue,,,,,4282.09999999404,,,,hwrblsy3h,experiment_FR,,358200,17.0,blocks-exp,
47,49,49,22.0,34.0,,1.0,"[1, 6, 1, 3, 6, 5]","[8, 7, 4, 5, 7, 3]",11.5,,74.0,Green to Orange,Pink to Blue,,,,,787.8999999761581,,,,hwrblsy3h,experiment_FR,,359995,18.0,blocks-exp,
48,50,50,26.0,28.0,,1.0,"[1, 1, 7, 5, 8, 4]","[4, 2, 3, 7, 8, 4]",11.5,,74.0,Green to Orange,Pink to Blue,,,,,996.0999999940396,,,,hwrblsy3h,experiment_FR,,362001,19.0,blocks-exp,
49,51,51,32.0,21.0,,1.0,"[6, 6, 6, 3, 7, 4]","[6, 1, 1, 3, 8, 2]",11.5,,70.0,Green to Orange,Pink to Blue,,,,,902.8000000119208,,,,hwrblsy3h,experiment_FR,,363918,20.0,blocks-exp,
50,52,52,21.0,24.0,,0.0,"[2, 1, 8, 2, 5, 3]","[6, 1, 5, 4, 4, 4]",11.5,,70.0,Green to Orange,Pink to Blue,,,,,698.9000000059605,,,,hwrblsy3h,experiment_FR,,365637,21.0,blocks-exp,
51,53,53,28.0,27.0,,1.0,"[3, 3, 4, 5, 7, 6]","[5, 4, 3, 6, 1, 8]",11.5,,70.0,Green to Orange,Pink to Blue,,,,,938.4000000059604,,,,hwrblsy3h,experiment_FR,,367587,22.0,blocks-exp,
52,54,54,26.0,19.0,,1.0,"[3, 2, 3, 6, 4, 8]","[2, 5, 6, 1, 1, 4]",11.5,,70.0,Green to Orange,Pink to Blue,,,,,981.5,,,,hwrblsy3h,experiment_FR,,369577,23.0,blocks-exp,
53,55,55,24.0,27.0,,0.0,"[2, 2, 5, 7, 6, 2]","[4, 5, 6, 6, 5, 1]",11.5,,70.0,Green to Orange,Pink to Blue,,,,,798.6999999880791,,,,hwrblsy3h,experiment_FR,,371388,24.0,blocks-exp,
54,56,56,24.0,20.0,,1.0,"[2, 1, 7, 4, 8, 2]","[3, 1, 7, 7, 1, 1]",11.5,,70.0,Green to Orange,Pink to Blue,,,,,1044.0999999940395,,,,hwrblsy3h,experiment_FR,,373443,25.0,blocks-exp,
55,57,57,22.0,28.0,,0.0,"[1, 4, 6, 1, 5, 5]","[7, 6, 4, 3, 1, 7]",11.5,,70.0,Green to Orange,Pink to Blue,,,,,1134.5999999940395,,,,hwrblsy3h,experiment_FR,,375587,26.0,blocks-exp,
56,58,58,22.0,29.0,,1.0,"[5, 2, 2, 3, 6, 4]","[8, 3, 5, 5, 6, 2]",11.5,,74.0,Green to Orange,Pink to Blue,,,,,1323.199999988079,,,,hwrblsy3h,experiment_FR,,377919,27.0,blocks-exp,
57,59,59,27.0,27.0,,1.0,"[4, 6, 4, 3, 8, 2]","[6, 3, 6, 3, 4, 5]",11.5,,70.0,Green to Orange,Pink to Blue,,,,,1013.0,,,,hwrblsy3h,experiment_FR,,379945,28.0,blocks-exp,
58,60,60,17.0,19.0,,0.0,"[1, 3, 6, 1, 2, 4]","[2, 2, 4, 5, 2, 4]",11.5,,70.0,Green to Orange,Pink to Blue,,,,,2174.800000011921,,,,hwrblsy3h,experiment_FR,,383126,29.0,blocks-exp,
59,61,61,35.0,22.0,,1.0,"[7, 7, 7, 8, 2, 4]","[1, 7, 2, 2, 2, 8]",11.5,,70.0,Green to Orange,Pink to Blue,,,,,584.1999999880791,,,,hwrblsy3h,experiment_FR,,384723,30.0,blocks-exp,
60,62,62,19.0,27.0,,1.0,"[1, 3, 3, 6, 2, 4]","[6, 2, 4, 5, 8, 2]",11.5,,74.0,Green to Orange,Pink to Blue,,,,,599.5999999940395,,,,hwrblsy3h,experiment_FR,,386337,31.0,blocks-exp,
61,63,63,26.0,25.0,,0.0,"[2, 6, 4, 2, 6, 6]","[6, 1, 7, 2, 8, 1]",11.5,,74.0,Green to Orange,Pink to Blue,,,,,962.8000000119208,,,,hwrblsy3h,experiment_FR,,388310,32.0,blocks-exp,
62,64,64,35.0,22.0,,1.0,"[6, 7, 7, 8, 3, 4]","[2, 1, 4, 6, 6, 3]",11.5,,70.0,Green to Orange,Pink to Blue,,,,,617.2000000178814,,,,hwrblsy3h,experiment_FR,,389936,33.0,blocks-exp,
63,65,65,13.0,18.0,,0.0,"[1, 1, 1, 2, 2, 6]","[2, 3, 3, 3, 3, 4]",11.5,,70.0,Green to Orange,Pink to Blue,,,,,779.9000000059605,,,,hwrblsy3h,experiment_FR,,391724,34.0,blocks-exp,
64,66,66,23.0,26.0,,1.0,"[8, 6, 1, 2, 5, 1]","[6, 3, 4, 7, 1, 5]",11.5,,74.0,Green to Orange,Pink to Blue,,,,,3082.5,,,,hwrblsy3h,experiment_FR,,395816,35.0,blocks-exp,
65,67,67,33.0,33.0,,1.0,"[6, 1, 5, 8, 8, 5]","[4, 7, 3, 6, 7, 6]",11.5,,70.0,Green to Orange,Pink to Blue,,,,,487.1999999880791,,,,hwrblsy3h,experiment_FR,,397314,36.0,blocks-exp,
66,68,68,36.0,19.0,,1.0,"[8, 7, 8, 8, 1, 4]","[3, 6, 2, 1, 5, 2]",11.5,,70.0,Green to Orange,Pink to Blue,,,,,677.6999999880791,,,,hwrblsy3h,experiment_FR,,399003,37.0,blocks-exp,
67,69,69,26.0,29.0,,1.0,"[8, 2, 3, 3, 8, 2]","[4, 7, 8, 1, 4, 5]",11.5,,74.0,Green to Orange,Pink to Blue,,,,,881.8000000119209,,,,hwrblsy3h,experiment_FR,,400890,38.0,blocks-exp,
68,70,70,25.0,31.0,,1.0,"[5, 3, 2, 4, 4, 7]","[6, 7, 7, 4, 6, 1]",11.5,,74.0,Green to Orange,Pink to Blue,,,,,862.3000000119209,,,,hwrblsy3h,experiment_FR,,402764,39.0,blocks-exp,
69,71,71,17.0,33.0,,1.0,"[5, 1, 1, 4, 5, 1]","[4, 8, 8, 8, 3, 2]",11.5,,74.0,Green to Orange,Pink to Blue,,,,,563.0,,,,hwrblsy3h,experiment_FR,,404338,40.0,blocks-exp,
70,72,72,28.0,20.0,,1.0,"[3, 7, 4, 6, 6, 2]","[3, 3, 7, 2, 1, 4]",11.5,,70.0,Green to Orange,Pink to Blue,,,,,517.7000000178814,,,,hwrblsy3h,experiment_FR,,405865,41.0,blocks-exp,
71,73,73,30.0,24.0,,1.0,"[6, 3, 7, 3, 5, 6]","[4, 3, 6, 2, 7, 2]",11.5,,70.0,Green to Orange,Pink to Blue,,,,,821.7999999821186,,,,hwrblsy3h,experiment_FR,,407699,42.0,blocks-exp,
72,74,74,41.0,19.0,,1.0,"[6, 8, 8, 7, 6, 6]","[2, 4, 5, 5, 2, 1]",11.5,,70.0,Green to Orange,Pink to Blue,,,,,405.0,,,,hwrblsy3h,experiment_FR,,409115,43.0,blocks-exp,
73,75,75,21.0,29.0,,1.0,"[3, 4, 1, 4, 3, 6]","[1, 6, 4, 3, 8, 7]",11.5,,74.0,Green to Orange,Pink to Blue,,,,,548.4000000059605,,,,hwrblsy3h,experiment_FR,,410676,44.0,blocks-exp,
74,76,76,20.0,25.0,,1.0,"[2, 3, 6, 1, 6, 2]","[2, 1, 8, 3, 4, 7]",11.5,,74.0,Green to Orange,Pink to Blue,,,,,996.0,,,,hwrblsy3h,experiment_FR,,412685,45.0,blocks-exp,
75,77,77,33.0,20.0,,1.0,"[2, 7, 7, 7, 4, 6]","[7, 2, 1, 2, 3, 5]",11.5,,70.0,Green to Orange,Pink to Blue,,,,,535.5999999940395,,,,hwrblsy3h,experiment_FR,,414231,46.0,blocks-exp,
76,78,78,27.0,25.0,,1.0,"[1, 4, 4, 7, 4, 7]","[3, 2, 4, 2, 6, 8]",11.5,,70.0,Green to Orange,Pink to Blue,,,,,920.3000000119208,,,,hwrblsy3h,experiment_FR,,416163,47.0,blocks-exp,
77,79,79,33.0,18.0,,1.0,"[8, 6, 2, 7, 5, 5]","[3, 1, 5, 1, 1, 7]",11.5,,70.0,Green to Orange,Pink to Blue,,,,,513.6999999880791,,,,hwrblsy3h,experiment_FR,,417683,48.0,blocks-exp,
78,80,80,18.0,21.0,,1.0,"[3, 5, 3, 3, 1, 3]","[5, 4, 3, 3, 5, 1]",11.5,,74.0,Green to Orange,Pink to Blue,,,,,5674.200000017881,,,,hwrblsy3h,experiment_FR,,424377,49.0,blocks-exp,
79,81,81,25.0,20.0,,1.0,"[3, 3, 6, 3, 2, 8]","[5, 1, 4, 7, 1, 2]",11.5,,70.0,Green to Orange,Pink to Blue,,,,,1133.699999988079,,,,hwrblsy3h,experiment_FR,,426521,50.0,blocks-exp,
80,82,82,23.0,17.0,,1.0,"[4, 3, 6, 1, 8, 1]","[1, 5, 3, 2, 3, 3]",11.5,,70.0,Green to Orange,Pink to Blue,,,,,726.8000000119209,,,,hwrblsy3h,experiment_FR,,428254,51.0,blocks-exp,
81,83,83,29.0,24.0,,1.0,"[4, 8, 1, 2, 7, 7]","[3, 4, 5, 8, 3, 1]",11.5,,70.0,Green to Orange,Pink to Blue,,,,,658.7999999821186,,,,hwrblsy3h,experiment_FR,,429926,52.0,blocks-exp,
82,84,84,20.0,17.0,,0.0,"[2, 6, 3, 3, 2, 4]","[7, 2, 2, 1, 4, 1]",11.5,,74.0,Green to Orange,Pink to Blue,,,,,1383.600000023842,,,,hwrblsy3h,experiment_FR,,432318,53.0,blocks-exp,
83,85,85,27.0,35.0,,1.0,"[4, 8, 2, 3, 5, 5]","[6, 7, 7, 8, 2, 5]",11.5,,74.0,Green to Orange,Pink to Blue,,,,,716.3999999761581,,,,hwrblsy3h,experiment_FR,,434048,54.0,blocks-exp,
84,86,86,19.0,21.0,,1.0,"[4, 1, 2, 5, 3, 4]","[3, 1, 7, 6, 1, 3]",11.5,,74.0,Green to Orange,Pink to Blue,,,,,859.2000000178814,,,,hwrblsy3h,experiment_FR,,435917,55.0,blocks-exp,
85,87,87,31.0,36.0,,1.0,"[3, 4, 6, 3, 8, 7]","[8, 5, 8, 7, 6, 2]",11.5,,74.0,Green to Orange,Pink to Blue,,,,,747.4000000059605,,,,hwrblsy3h,experiment_FR,,437676,56.0,blocks-exp,
86,88,88,31.0,28.0,,1.0,"[4, 5, 1, 8, 8, 5]","[5, 7, 8, 1, 1, 6]",11.5,,70.0,Green to Orange,Pink to Blue,,,,,1232.800000011921,,,,hwrblsy3h,experiment_FR,,439918,57.0,blocks-exp,
87,89,89,19.0,28.0,,1.0,"[2, 2, 1, 5, 5, 4]","[3, 3, 8, 3, 5, 6]",11.5,,74.0,Green to Orange,Pink to Blue,,,,,1070.899999976158,,,,hwrblsy3h,experiment_FR,,442000,58.0,blocks-exp,
88,90,90,34.0,17.0,,1.0,"[5, 2, 8, 4, 7, 8]","[4, 1, 1, 4, 1, 6]",11.5,,70.0,Green to Orange,Pink to Blue,,,,,515.1999999880791,,,,hwrblsy3h,experiment_FR,,443523,59.0,blocks-exp,
89,91,91,28.0,37.0,,1.0,"[8, 5, 3, 3, 6, 3]","[8, 7, 8, 2, 7, 5]",11.5,,74.0,Green to Orange,Pink to Blue,,,,,595.6999999880791,,,,hwrblsy3h,experiment_FR,,445129,60.0,blocks-exp,
90,92,92,14.0,20.0,,1.0,"[4, 1, 3, 3, 2, 1]","[1, 2, 8, 2, 3, 4]",11.5,,74.0,Green to Orange,Pink to Blue,,,,,978.0999999940396,,,,hwrblsy3h,experiment_FR,,447120,61.0,blocks-exp,
91,93,93,25.0,25.0,,1.0,"[7, 4, 1, 5, 6, 2]","[7, 3, 3, 6, 5, 1]",11.5,,74.0,Green to Orange,Pink to Blue,,,,,614.0999999940395,,,,hwrblsy3h,experiment_FR,,448741,62.0,blocks-exp,
92,94,94,26.0,26.0,,1.0,"[5, 7, 4, 7, 2, 1]","[1, 6, 4, 5, 3, 7]",11.5,,74.0,Green to Orange,Pink to Blue,,,,,1544.2000000178814,,,,hwrblsy3h,experiment_FR,,451296,63.0,blocks-exp,
93,95,95,16.0,29.0,,1.0,"[4, 1, 3, 1, 6, 1]","[3, 7, 6, 6, 2, 5]",11.5,,74.0,Green to Orange,Pink to Blue,,,,,593.6999999880791,,,,hwrblsy3h,experiment_FR,,452898,64.0,blocks-exp,
94,96,96,35.0,29.0,,1.0,"[4, 4, 6, 8, 7, 6]","[3, 8, 6, 4, 4, 4]",11.5,,70.0,Green to Orange,Pink to Blue,,,,,611.2000000178814,,,,hwrblsy3h,experiment_FR,,454521,65.0,blocks-exp,
95,97,97,34.0,31.0,,1.0,"[8, 8, 2, 5, 7, 4]","[3, 7, 4, 4, 5, 8]",11.5,,70.0,Green to Orange,Pink to Blue,,,,,821.6999999880791,,,,hwrblsy3h,experiment_FR,,456356,66.0,blocks-exp,
96,98,98,26.0,23.0,,1.0,"[3, 5, 3, 5, 3, 7]","[4, 4, 6, 3, 5, 1]",11.5,,70.0,Green to Orange,Pink to Blue,,,,,792.0,,,,hwrblsy3h,experiment_FR,,458156,67.0,blocks-exp,
97,99,99,19.0,20.0,,0.0,"[2, 1, 3, 2, 6, 5]","[2, 4, 1, 4, 4, 5]",11.5,,70.0,Green to Orange,Pink to Blue,,,,,962.9000000059604,,,,hwrblsy3h,experiment_FR,,460131,68.0,blocks-exp,
98,100,100,23.0,29.0,,1.0,"[4, 1, 8, 3, 6, 1]","[1, 7, 8, 4, 2, 7]",11.5,,74.0,Green to Orange,Pink to Blue,,,,,882.0999999940395,,,,hwrblsy3h,experiment_FR,,462024,69.0,blocks-exp,
99,101,101,33.0,25.0,,1.0,"[4, 7, 1, 8, 5, 8]","[3, 6, 2, 1, 7, 6]",11.5,,70.0,Green to Orange,Pink to Blue,,,,,922.2000000178814,,,,hwrblsy3h,experiment_FR,,463955,70.0,blocks-exp,
100,102,102,26.0,28.0,,1.0,"[8, 5, 5, 3, 2, 3]","[5, 2, 3, 8, 7, 3]",11.5,,74.0,Green to Orange,Pink to Blue,,,,,598.3999999761581,,,,hwrblsy3h,experiment_FR,,465563,71.0,blocks-exp,
101,103,103,29.0,20.0,,1.0,"[7, 7, 5, 3, 3, 4]","[6, 1, 1, 4, 6, 2]",11.5,,70.0,Green to Orange,Pink to Blue,,,,,840.5,,,,hwrblsy3h,experiment_FR,,467415,72.0,blocks-exp,
102,104,104,24.0,28.0,,1.0,"[4, 2, 4, 8, 3, 3]","[1, 5, 3, 3, 8, 8]",11.5,,74.0,Green to Orange,Pink to Blue,,,,,751.0,,,,hwrblsy3h,experiment_FR,,469174,73.0,blocks-exp,
103,105,105,27.0,29.0,,1.0,"[6, 2, 4, 6, 6, 3]","[5, 3, 6, 7, 2, 6]",11.5,,74.0,Green to Orange,Pink to Blue,,,,,2357.0,,,,hwrblsy3h,experiment_FR,,472541,74.0,blocks-exp,
104,106,106,32.0,29.0,,1.0,"[5, 7, 6, 8, 5, 1]","[5, 2, 7, 7, 4, 4]",11.5,,70.0,Green to Orange,Pink to Blue,,,,,895.1999999880791,,,,hwrblsy3h,experiment_FR,,474445,75.0,blocks-exp,
105,107,107,22.0,30.0,,1.0,"[3, 3, 6, 5, 2, 3]","[3, 8, 2, 5, 5, 7]",11.5,,74.0,Green to Orange,Pink to Blue,,,,,1052.800000011921,,,,hwrblsy3h,experiment_FR,,476510,76.0,blocks-exp,
106,108,108,20.0,27.0,,1.0,"[3, 6, 2, 1, 5, 3]","[1, 8, 2, 8, 1, 7]",11.5,,74.0,Green to Orange,Pink to Blue,,,,,732.5,,,,hwrblsy3h,experiment_FR,,478252,77.0,blocks-exp,
107,109,109,27.0,20.0,,1.0,"[1, 6, 6, 6, 2, 6]","[1, 2, 1, 4, 7, 5]",11.5,,70.0,Green to Orange,Pink to Blue,,,,,940.5,,,,hwrblsy3h,experiment_FR,,480202,78.0,blocks-exp,
108,110,110,35.0,24.0,,1.0,"[6, 8, 1, 5, 8, 7]","[6, 2, 5, 7, 2, 2]",11.5,,70.0,Green to Orange,Pink to Blue,,,,,677.4000000059605,,,,hwrblsy3h,experiment_FR,,481894,79.0,blocks-exp,
109,111,111,19.0,18.0,,1.0,"[1, 6, 1, 8, 1, 2]","[7, 1, 2, 1, 1, 6]",11.5,,70.0,Green to Orange,Pink to Blue,,,,,2305.199999988079,,,,hwrblsy3h,experiment_FR,,485207,80.0,blocks-exp,
110,112,112,28.0,28.0,,0.0,"[8, 6, 5, 5, 3, 1]","[8, 6, 1, 5, 5, 3]",11.5,,74.0,Green to Orange,Pink to Blue,,,,,1130.0,,,,hwrblsy3h,experiment_FR,,487349,81.0,blocks-exp,
111,113,113,34.0,27.0,,1.0,"[6, 7, 5, 4, 8, 4]","[5, 4, 5, 3, 7, 3]",11.5,,70.0,Green to Orange,Pink to Blue,,,,,700.2999999821186,,,,hwrblsy3h,experiment_FR,,489062,82.0,blocks-exp,
112,114,114,33.0,42.0,,1.0,"[4, 6, 8, 7, 1, 7]","[5, 7, 8, 7, 7, 8]",11.5,,74.0,Green to Orange,Pink to Blue,,,,,726.3999999761581,,,,hwrblsy3h,experiment_FR,,490797,83.0,blocks-exp,
113,115,115,32.0,27.0,,1.0,"[1, 8, 3, 5, 8, 7]","[2, 1, 8, 8, 5, 3]",11.5,,70.0,Green to Orange,Pink to Blue,,,,,899.5,,,,hwrblsy3h,experiment_FR,,492707,84.0,blocks-exp,
114,116,116,31.0,25.0,,1.0,"[6, 7, 3, 8, 5, 2]","[1, 2, 6, 4, 4, 8]",11.5,,70.0,Green to Orange,Pink to Blue,,,,,1019.2999999821186,,,,hwrblsy3h,experiment_FR,,494733,85.0,blocks-exp,
115,117,117,13.0,27.0,,1.0,"[4, 3, 1, 1, 1, 3]","[5, 5, 3, 4, 6, 4]",11.5,,74.0,Green to Orange,Pink to Blue,,,,,1238.5999999940395,,,,hwrblsy3h,experiment_FR,,496982,86.0,blocks-exp,
116,118,118,18.0,25.0,,1.0,"[5, 2, 4, 2, 3, 2]","[6, 8, 4, 3, 1, 3]",11.5,,74.0,Green to Orange,Pink to Blue,,,,,753.2999999821186,,,,hwrblsy3h,experiment_FR,,498744,87.0,blocks-exp,
117,119,119,35.0,30.0,,1.0,"[3, 8, 8, 7, 5, 4]","[1, 6, 8, 2, 6, 7]",11.5,,70.0,Green to Orange,Pink to Blue,,,,,1541.0,,,,hwrblsy3h,experiment_FR,,501298,88.0,blocks-exp,
118,120,120,27.0,24.0,,1.0,"[5, 5, 5, 3, 7, 2]","[3, 2, 8, 6, 2, 3]",11.5,,70.0,Green to Orange,Pink to Blue,,,,,874.5999999940395,,,,hwrblsy3h,experiment_FR,,503179,89.0,blocks-exp,
119,121,121,27.0,26.0,,0.0,"[4, 5, 5, 6, 3, 4]","[4, 7, 1, 5, 3, 6]",11.5,,74.0,Green to Orange,Pink to Blue,,,,,1055.5,,,,hwrblsy3h,experiment_FR,,505246,90.0,blocks-exp,
120,122,122,29.0,23.0,,1.0,"[6, 6, 2, 1, 6, 8]","[4, 1, 4, 4, 4, 6]",11.5,,70.0,Green to Orange,Pink to Blue,,,,,497.8999999761581,,,,hwrblsy3h,experiment_FR,,506755,91.0,blocks-exp,
121,123,123,29.0,26.0,,1.0,"[3, 2, 6, 6, 5, 7]","[3, 5, 1, 5, 4, 8]",11.5,,70.0,Green to Orange,Pink to Blue,,,,,698.8000000119209,,,,hwrblsy3h,experiment_FR,,508466,92.0,blocks-exp,
122,124,124,24.0,24.0,,0.0,"[3, 3, 6, 3, 1, 8]","[4, 8, 2, 5, 4, 1]",11.5,,74.0,Green to Orange,Pink to Blue,,,,,781.7000000178814,,,,hwrblsy3h,experiment_FR,,510258,93.0,blocks-exp,
123,125,125,17.0,22.0,,1.0,"[1, 3, 6, 3, 2, 2]","[7, 4, 4, 3, 2, 2]",11.5,,74.0,Green to Orange,Pink to Blue,,,,,932.5,,,,hwrblsy3h,experiment_FR,,512200,94.0,blocks-exp,
124,126,126,22.0,31.0,,1.0,"[1, 4, 5, 2, 2, 8]","[7, 5, 4, 3, 4, 8]",11.5,,74.0,Green to Orange,Pink to Blue,,,,,970.2000000178814,,,,hwrblsy3h,experiment_FR,,514191,95.0,blocks-exp,
125,127,127,25.0,25.0,,0.0,"[4, 6, 1, 8, 4, 2]","[5, 6, 4, 2, 2, 6]",11.5,,70.0,Green to Orange,Pink to Blue,,,,,802.2000000178814,,,,hwrblsy3h,experiment_FR,,516003,96.0,blocks-exp,
126,128,128,25.0,31.0,,1.0,"[6, 8, 3, 4, 3, 1]","[8, 8, 8, 2, 3, 2]",11.5,,74.0,Green to Orange,Pink to Blue,,,,,769.5,,,,hwrblsy3h,experiment_FR,,517785,97.0,blocks-exp,
127,129,129,27.0,31.0,,1.0,"[8, 5, 1, 1, 4, 8]","[2, 7, 8, 1, 8, 5]",11.5,,74.0,Green to Orange,Pink to Blue,,,,,635.6999999880791,,,,hwrblsy3h,experiment_FR,,519433,98.0,blocks-exp,
128,130,130,26.0,23.0,,1.0,"[2, 1, 3, 7, 6, 7]","[8, 3, 1, 4, 3, 4]",11.5,,70.0,Green to Orange,Pink to Blue,,,,,660.2999999821186,,,,hwrblsy3h,experiment_FR,,521105,99.0,blocks-exp,
129,131,131,22.0,25.0,,0.0,"[8, 1, 8, 2, 2, 1]","[4, 8, 3, 4, 3, 3]",11.5,,70.0,Green to Orange,Pink to Blue,,,,,1092.2999999821186,,,,hwrblsy3h,experiment_FR,,523207,100.0,blocks-exp,
130,132,132,35.0,36.0,,0.0,"[8, 5, 6, 8, 2, 6]","[6, 4, 7, 8, 6, 5]",11.5,,70.0,Green to Orange,Pink to Blue,,,,,478.8000000119209,,,,hwrblsy3h,experiment_FR,,524694,101.0,blocks-exp,
131,133,133,27.0,34.0,,1.0,"[2, 3, 8, 7, 6, 1]","[6, 8, 7, 6, 6, 1]",11.5,,74.0,Green to Orange,Pink to Blue,,,,,724.5999999940395,,,,hwrblsy3h,experiment_FR,,526428,102.0,blocks-exp,
132,134,134,23.0,39.0,,1.0,"[4, 1, 8, 3, 5, 2]","[6, 8, 3, 8, 8, 6]",11.5,,74.0,Green to Orange,Pink to Blue,,,,,770.0,,,,hwrblsy3h,experiment_FR,,528210,103.0,blocks-exp,
133,135,135,33.0,29.0,,1.0,"[2, 5, 7, 5, 7, 7]","[4, 2, 7, 7, 4, 5]",11.5,,70.0,Green to Orange,Pink to Blue,,,,,969.4000000059604,,,,hwrblsy3h,experiment_FR,,530190,104.0,blocks-exp,
134,136,136,23.0,19.0,,1.0,"[2, 1, 4, 2, 8, 6]","[3, 3, 3, 1, 7, 2]",11.5,,70.0,Green to Orange,Pink to Blue,,,,,1036.100000023842,,,,hwrblsy3h,experiment_FR,,532239,105.0,blocks-exp,
135,137,137,32.0,24.0,,1.0,"[5, 4, 8, 8, 3, 4]","[6, 2, 7, 1, 2, 6]",11.5,,70.0,Green to Orange,Pink to Blue,,,,,786.0999999940395,,,,hwrblsy3h,experiment_FR,,534039,106.0,blocks-exp,
136,138,138,30.0,35.0,,1.0,"[1, 3, 5, 8, 7, 6]","[6, 3, 8, 3, 7, 8]",11.5,,74.0,Green to Orange,Pink to Blue,,,,,803.2999999821186,,,,hwrblsy3h,experiment_FR,,535852,107.0,blocks-exp,
137,139,139,23.0,27.0,,1.0,"[4, 4, 1, 7, 1, 6]","[5, 4, 6, 2, 2, 8]",11.5,,74.0,Green to Orange,Pink to Blue,,,,,858.9000000059605,,,,hwrblsy3h,experiment_FR,,537731,108.0,blocks-exp,
138,140,140,12.0,27.0,,1.0,"[1, 1, 2, 3, 3, 2]","[6, 5, 5, 3, 7, 1]",11.5,,74.0,Green to Orange,Pink to Blue,,,,,759.0999999940395,,,,hwrblsy3h,experiment_FR,,539501,109.0,blocks-exp,
139,141,141,28.0,33.0,,1.0,"[3, 5, 7, 2, 3, 8]","[5, 4, 7, 8, 7, 2]",11.5,,74.0,Green to Orange,Pink to Blue,,,,,753.0999999940395,,,,hwrblsy3h,experiment_FR,,541266,110.0,blocks-exp,
140,142,142,22.0,29.0,,1.0,"[7, 3, 1, 4, 5, 2]","[1, 5, 7, 6, 5, 5]",11.5,,74.0,Green to Orange,Pink to Blue,,,,,775.5,,,,hwrblsy3h,experiment_FR,,543054,111.0,blocks-exp,
141,143,143,33.0,23.0,,1.0,"[1, 8, 6, 7, 6, 5]","[2, 1, 4, 8, 2, 6]",11.5,,70.0,Green to Orange,Pink to Blue,,,,,724.2000000178814,,,,hwrblsy3h,experiment_FR,,544787,112.0,blocks-exp,
142,144,144,27.0,35.0,,1.0,"[4, 4, 7, 2, 6, 4]","[8, 6, 3, 7, 8, 3]",11.5,,74.0,Green to Orange,Pink to Blue,,,,,689.9000000059605,,,,hwrblsy3h,experiment_FR,,546484,113.0,blocks-exp,
143,145,145,22.0,39.0,,1.0,"[2, 2, 3, 2, 7, 6]","[8, 6, 7, 3, 7, 8]",11.5,,74.0,Green to Orange,Pink to Blue,,,,,748.5,,,,hwrblsy3h,experiment_FR,,548243,114.0,blocks-exp,
144,146,146,29.0,28.0,,1.0,"[5, 3, 7, 4, 7, 3]","[6, 6, 6, 2, 6, 2]",11.5,,70.0,Green to Orange,Pink to Blue,,,,,1237.2999999821186,,,,hwrblsy3h,experiment_FR,,550490,115.0,blocks-exp,
145,147,147,33.0,30.0,,1.0,"[5, 6, 7, 4, 3, 8]","[3, 6, 8, 1, 5, 7]",11.5,,70.0,Green to Orange,Pink to Blue,,,,,553.6999999880791,,,,hwrblsy3h,experiment_FR,,552053,116.0,blocks-exp,
146,148,148,31.0,18.0,,1.0,"[3, 5, 8, 6, 5, 4]","[4, 1, 1, 8, 1, 3]",11.5,,70.0,Green to Orange,Pink to Blue,,,,,626.6999999880791,,,,hwrblsy3h,experiment_FR,,553688,117.0,blocks-exp,
147,149,149,28.0,26.0,,1.0,"[5, 4, 6, 1, 8, 4]","[3, 7, 6, 2, 3, 5]",11.5,,70.0,Green to Orange,Pink to Blue,,,,,662.0,,,,hwrblsy3h,experiment_FR,,555361,118.0,blocks-exp,
148,150,150,29.0,42.0,,1.0,"[5, 3, 5, 4, 4, 8]","[6, 6, 8, 8, 6, 8]",11.5,,74.0,Green to Orange,Pink to Blue,,,,,699.0999999940395,,,,hwrblsy3h,experiment_FR,,557072,119.0,blocks-exp,
149,151,151,33.0,25.0,,1.0,"[6, 6, 5, 6, 2, 8]","[6, 7, 2, 1, 8, 1]",11.5,,70.0,Green to Orange,Pink to Blue,,,,,908.0,,,,hwrblsy3h,experiment_FR,,558994,120.0,blocks-exp,
150,152,152,26.0,30.0,,1.0,"[1, 1, 6, 7, 8, 3]","[5, 1, 3, 7, 6, 8]",11.5,,74.0,Green to Orange,Pink to Blue,,,,,1074.7999999821186,,,,hwrblsy3h,experiment_FR,,561090,121.0,blocks-exp,
151,153,153,30.0,25.0,,1.0,"[7, 2, 6, 6, 4, 5]","[5, 4, 2, 3, 7, 4]",11.5,,70.0,Green to Orange,Pink to Blue,,,,,1473.5,,,,hwrblsy3h,experiment_FR,,563574,122.0,blocks-exp,
152,154,154,28.0,26.0,,1.0,"[3, 6, 2, 7, 5, 5]","[3, 6, 7, 2, 7, 1]",11.5,,70.0,Green to Orange,Pink to Blue,,,,,983.2999999821186,,,,hwrblsy3h,experiment_FR,,565566,123.0,blocks-exp,
153,155,155,34.0,23.0,,1.0,"[6, 6, 7, 8, 2, 5]","[3, 5, 6, 1, 2, 6]",11.5,,70.0,Green to Orange,Pink to Blue,,,,,780.0,,,,hwrblsy3h,experiment_FR,,567359,124.0,blocks-exp,
154,156,156,44.0,25.0,,1.0,"[8, 8, 6, 8, 8, 6]","[2, 8, 5, 4, 3, 3]",11.5,,70.0,Green to Orange,Pink to Blue,,,,,602.2000000178814,,,,hwrblsy3h,experiment_FR,,568973,125.0,blocks-exp,
155,157,157,27.0,19.0,,1.0,"[5, 4, 2, 8, 6, 2]","[5, 1, 7, 2, 2, 2]",11.5,,70.0,Green to Orange,Pink to Blue,,,,,712.0,,,,hwrblsy3h,experiment_FR,,570697,126.0,blocks-exp,
156,158,158,27.0,19.0,,1.0,"[6, 6, 3, 1, 3, 8]","[6, 3, 1, 1, 4, 4]",11.5,,70.0,Green to Orange,Pink to Blue,,,,,706.7999999821186,,,,hwrblsy3h,experiment_FR,,572410,127.0,blocks-exp,
157,159,159,30.0,25.0,,1.0,"[3, 5, 8, 4, 8, 2]","[8, 3, 2, 5, 4, 3]",11.5,,70.0,Green to Orange,Pink to Blue,,,,,431.2999999821186,,,,hwrblsy3h,experiment_FR,,573850,128.0,blocks-exp,
158,160,160,21.0,22.0,,0.0,"[7, 1, 4, 1, 7, 1]","[1, 7, 5, 3, 5, 1]",11.5,,70.0,Green to Orange,Pink to Blue,,,,,788.0999999940395,,,,hwrblsy3h,experiment_FR,,575649,129.0,blocks-exp,
159,161,161,25.0,32.0,,1.0,"[1, 6, 3, 6, 3, 6]","[2, 8, 5, 1, 8, 8]",11.5,,74.0,Green to Orange,Pink to Blue,,,,,658.0999999940395,,,,hwrblsy3h,experiment_FR,,577318,130.0,blocks-exp,
160,162,162,23.0,33.0,,1.0,"[3, 8, 1, 4, 5, 2]","[3, 8, 3, 7, 6, 6]",11.5,,74.0,Green to Orange,Pink to Blue,,,,,666.5999999940395,,,,hwrblsy3h,experiment_FR,,578993,131.0,blocks-exp,
161,163,163,30.0,38.0,,1.0,"[3, 6, 7, 2, 8, 4]","[7, 4, 8, 8, 5, 6]",11.5,,74.0,Green to Orange,Pink to Blue,,,,,778.3000000119209,,,,hwrblsy3h,experiment_FR,,580781,132.0,blocks-exp,
162,164,164,33.0,17.0,,1.0,"[4, 5, 4, 7, 5, 8]","[1, 3, 3, 2, 6, 2]",11.5,,70.0,Green to Orange,Pink to Blue,,,,,950.5999999940396,,,,hwrblsy3h,experiment_FR,,582743,133.0,blocks-exp,
163,165,165,31.0,37.0,,0.0,"[1, 6, 6, 8, 2, 8]","[6, 4, 6, 8, 6, 7]",11.5,,70.0,Green to Orange,Pink to Blue,,,,,1060.9000000059605,,,,hwrblsy3h,experiment_FR,,584815,134.0,blocks-exp,
164,166,166,33.0,27.0,,1.0,"[6, 3, 5, 5, 7, 7]","[8, 3, 8, 4, 3, 1]",11.5,,70.0,Green to Orange,Pink to Blue,,,,,988.0,,,,hwrblsy3h,experiment_FR,,586811,135.0,blocks-exp,
165,167,167,38.0,31.0,,1.0,"[6, 3, 7, 8, 7, 7]","[7, 4, 1, 5, 8, 6]",11.5,,70.0,Green to Orange,Pink to Blue,,,,,834.4000000059605,,,,hwrblsy3h,experiment_FR,,588658,136.0,blocks-exp,
166,168,168,26.0,27.0,,1.0,"[5, 3, 4, 2, 4, 8]","[3, 6, 5, 7, 2, 4]",11.5,,74.0,Green to Orange,Pink to Blue,,,,,870.5,,,,hwrblsy3h,experiment_FR,,590539,137.0,blocks-exp,
167,169,169,33.0,34.0,,1.0,"[5, 5, 7, 3, 8, 5]","[7, 7, 5, 2, 7, 6]",11.5,,74.0,Green to Orange,Pink to Blue,,,,,763.9000000059605,,,,hwrblsy3h,experiment_FR,,592315,138.0,blocks-exp,
168,170,170,24.0,30.0,,1.0,"[6, 4, 2, 1, 5, 6]","[2, 4, 5, 4, 8, 7]",11.5,,74.0,Green to Orange,Pink to Blue,,,,,783.4000000059605,,,,hwrblsy3h,experiment_FR,,594109,139.0,blocks-exp,
169,171,171,32.0,28.0,,1.0,"[8, 8, 4, 2, 8, 2]","[4, 3, 4, 8, 2, 7]",11.5,,70.0,Green to Orange,Pink to Blue,,,,,732.7000000178814,,,,hwrblsy3h,experiment_FR,,595850,140.0,blocks-exp,
170,172,172,31.0,25.0,,1.0,"[4, 7, 6, 4, 3, 7]","[3, 3, 5, 4, 7, 3]",11.5,,70.0,Green to Orange,Pink to Blue,,,,,1179.5,,,,hwrblsy3h,experiment_FR,,598039,141.0,blocks-exp,
171,173,173,18.0,25.0,,1.0,"[1, 1, 8, 1, 1, 6]","[1, 8, 4, 3, 4, 5]",11.5,,74.0,Green to Orange,Pink to Blue,,,,,1158.100000023842,,,,hwrblsy3h,experiment_FR,,600210,142.0,blocks-exp,
172,174,174,27.0,29.0,,0.0,"[7, 4, 8, 1, 2, 5]","[5, 7, 6, 4, 6, 1]",11.5,,70.0,Green to Orange,Pink to Blue,,,,,1239.0,,,,hwrblsy3h,experiment_FR,,602456,143.0,blocks-exp,
173,175,175,28.0,16.0,,1.0,"[6, 5, 7, 4, 3, 3]","[2, 2, 1, 4, 2, 5]",11.5,,70.0,Green to Orange,Pink to Blue,,,,,831.5999999940395,,,,hwrblsy3h,experiment_FR,,604297,144.0,blocks-exp,
174,176,176,29.0,24.0,,1.0,"[2, 1, 7, 5, 6, 8]","[4, 2, 5, 3, 8, 2]",11.5,,70.0,Green to Orange,Pink to Blue,,,,,641.0999999940395,,,,hwrblsy3h,experiment_FR,,605951,145.0,blocks-exp,
175,177,177,23.0,33.0,,0.0,"[5, 2, 4, 8, 1, 3]","[5, 4, 5, 7, 4, 8]",11.5,,70.0,Green to Orange,Pink to Blue,,,,,563.4000000059605,,,,hwrblsy3h,experiment_FR,,607524,146.0,blocks-exp,
176,178,178,24.0,26.0,,0.0,"[7, 1, 5, 1, 5, 5]","[6, 8, 4, 2, 4, 2]",11.5,,70.0,Green to Orange,Pink to Blue,,,,,2358.5,,,,hwrblsy3h,experiment_FR,,610895,147.0,blocks-exp,
177,179,179,27.0,38.0,,1.0,"[3, 6, 3, 7, 2, 6]","[7, 8, 8, 7, 5, 3]",11.5,,74.0,Green to Orange,Pink to Blue,,,,,3305.7000000178814,,,,hwrblsy3h,experiment_FR,,615210,148.0,blocks-exp,
178,180,180,27.0,19.0,,0.0,"[5, 6, 7, 1, 4, 4]","[8, 2, 1, 3, 1, 4]",11.5,,74.0,Green to Orange,Pink to Blue,,,,,6287.299999982119,,,,hwrblsy3h,experiment_FR,,622507,149.0,blocks-exp,
179,181,181,34.0,21.0,,1.0,"[5, 8, 7, 6, 6, 2]","[5, 1, 5, 4, 3, 3]",11.5,,70.0,Green to Orange,Pink to Blue,,,,,1066.5999999940395,,,,hwrblsy3h,experiment_FR,,624585,150.0,blocks-exp,
180,577,192,24.0,31.0,,0.0,"[2, 6, 8, 3, 4, 1]","[1, 8, 3, 8, 6, 5]",12.25,,70.0,Pink to Blue,Green to Orange,,,,,1630.199999988079,,,,ua60hkvff,training_FR,,589968,1.0,blocks,
181,578,193,23.0,21.0,,1.0,"[6, 6, 3, 2, 1, 5]","[6, 1, 7, 1, 1, 5]",12.25,,70.0,Pink to Blue,Green to Orange,,,,,1229.100000023842,,,,ua60hkvff,training_FR,,593202,2.0,blocks,
182,579,194,26.0,30.0,,1.0,"[7, 1, 3, 4, 5, 6]","[5, 4, 4, 6, 4, 7]",12.25,,74.0,Pink to Blue,Green to Orange,,,,,1573.0999999642372,,,,ua60hkvff,training_FR,,596780,3.0,blocks,
183,580,195,31.0,39.0,,1.0,"[7, 4, 5, 3, 7, 5]","[7, 3, 8, 6, 7, 8]",12.25,,74.0,Pink to Blue,Green to Orange,,,,,1230.199999988079,,,,ua60hkvff,training_FR,,600015,4.0,blocks,
184,581,196,26.0,31.0,,1.0,"[4, 1, 6, 1, 8, 6]","[3, 8, 7, 7, 2, 4]",12.25,,74.0,Pink to Blue,Green to Orange,,,,,1227.0999999642372,,,,ua60hkvff,training_FR,,603246,5.0,blocks,
185,582,197,28.0,24.0,,0.0,"[6, 1, 2, 4, 8, 7]","[2, 4, 3, 5, 3, 7]",12.25,,74.0,Pink to Blue,Green to Orange,,,,,867.6999999880791,,,,ua60hkvff,training_FR,,606128,6.0,blocks,
186,583,198,31.0,21.0,,1.0,"[5, 6, 4, 4, 5, 7]","[5, 1, 6, 5, 1, 3]",12.25,,70.0,Pink to Blue,Green to Orange,,,,,1538.100000023842,,,,ua60hkvff,training_FR,,609679,7.0,blocks,
187,584,199,24.0,27.0,,1.0,"[1, 5, 8, 6, 2, 2]","[3, 2, 8, 7, 1, 6]",12.25,,74.0,Pink to Blue,Green to Orange,,,,,973.6999999880792,,,,ua60hkvff,training_FR,,612657,8.0,blocks,
188,585,200,28.0,19.0,,1.0,"[7, 5, 7, 4, 4, 1]","[2, 5, 2, 3, 1, 6]",12.25,,70.0,Pink to Blue,Green to Orange,,,,,760.9000000357628,,,,ua60hkvff,training_FR,,615423,9.0,blocks,
189,586,201,28.0,27.0,,1.0,"[6, 1, 6, 2, 7, 6]","[3, 8, 4, 5, 6, 1]",12.25,,70.0,Pink to Blue,Green to Orange,,,,,707.8999999761581,,,,ua60hkvff,training_FR,,618150,10.0,blocks,
190,587,202,21.0,24.0,,1.0,"[6, 1, 5, 4, 1, 4]","[8, 1, 5, 7, 2, 1]",12.25,,74.0,Pink to Blue,Green to Orange,,,,,1459.100000023842,,,,ua60hkvff,training_FR,,621614,11.0,blocks,
191,588,203,39.0,20.0,,1.0,"[8, 6, 6, 6, 6, 7]","[2, 1, 1, 4, 8, 4]",12.25,,70.0,Pink to Blue,Green to Orange,,,,,630.3000000119209,,,,ua60hkvff,training_FR,,624251,12.0,blocks,
192,589,204,30.0,25.0,,0.0,"[7, 2, 6, 3, 5, 7]","[5, 1, 7, 7, 4, 1]",12.25,,74.0,Pink to Blue,Green to Orange,,,,,2432.0,,,,ua60hkvff,training_FR,,628688,13.0,blocks,
193,590,205,31.0,29.0,,1.0,"[4, 5, 6, 8, 5, 3]","[5, 3, 3, 6, 6, 6]",12.25,,70.0,Pink to Blue,Green to Orange,,,,,596.5,,,,ua60hkvff,training_FR,,631304,14.0,blocks,
194,591,206,23.0,26.0,,1.0,"[4, 4, 6, 1, 2, 6]","[7, 6, 3, 2, 2, 6]",12.25,,74.0,Pink to Blue,Green to Orange,,,,,680.8000000119209,,,,ua60hkvff,training_FR,,633990,15.0,blocks,
195,592,207,38.0,19.0,,1.0,"[8, 5, 5, 4, 8, 8]","[1, 2, 1, 3, 4, 8]",12.25,,70.0,Pink to Blue,Green to Orange,,,,,538.6000000238419,,,,ua60hkvff,training_FR,,636543,16.0,blocks,
196,593,208,25.0,31.0,,1.0,"[2, 8, 4, 7, 2, 2]","[3, 6, 4, 7, 3, 8]",12.25,,74.0,Pink to Blue,Green to Orange,,,,,1169.699999988079,,,,ua60hkvff,training_FR,,639718,17.0,blocks,
197,594,209,25.0,30.0,,1.0,"[7, 6, 4, 3, 1, 4]","[4, 5, 7, 5, 6, 3]",12.25,,74.0,Pink to Blue,Green to Orange,,,,,759.6999999880791,,,,ua60hkvff,training_FR,,642483,18.0,blocks,
198,595,210,26.0,20.0,,1.0,"[2, 7, 1, 4, 4, 8]","[2, 3, 3, 8, 1, 3]",12.25,,70.0,Pink to Blue,Green to Orange,,,,,1066.5999999642372,,,,ua60hkvff,training_FR,,645552,19.0,blocks,
199,596,211,22.0,30.0,,1.0,"[1, 5, 6, 2, 5, 3]","[8, 4, 5, 3, 2, 8]",12.25,,74.0,Pink to Blue,Green to Orange,,,,,1048.300000011921,,,,ua60hkvff,training_FR,,648606,20.0,blocks,
200,597,212,25.0,19.0,,1.0,"[3, 1, 3, 3, 7, 8]","[6, 1, 4, 4, 3, 1]",12.25,,70.0,Pink to Blue,Green to Orange,,,,,644.0,,,,ua60hkvff,training_FR,,651254,21.0,blocks,
201,598,213,32.0,25.0,,1.0,"[8, 1, 7, 4, 6, 6]","[3, 5, 1, 5, 4, 7]",12.25,,70.0,Pink to Blue,Green to Orange,,,,,606.6999999880791,,,,ua60hkvff,training_FR,,653866,22.0,blocks,
202,599,214,32.0,21.0,,1.0,"[7, 7, 7, 4, 6, 1]","[1, 3, 5, 4, 6, 2]",12.25,,70.0,Pink to Blue,Green to Orange,,,,,805.7999999523163,,,,ua60hkvff,training_FR,,656676,23.0,blocks,
203,600,215,24.0,28.0,,1.0,"[4, 3, 1, 7, 8, 1]","[1, 6, 6, 4, 4, 7]",12.25,,74.0,Pink to Blue,Green to Orange,,,,,837.1000000238419,,,,ua60hkvff,training_FR,,659516,24.0,blocks,
204,601,216,39.0,35.0,,1.0,"[8, 8, 7, 5, 8, 3]","[2, 5, 5, 8, 7, 8]",12.25,,70.0,Pink to Blue,Green to Orange,,,,,473.0999999642372,,,,ua60hkvff,training_FR,,661993,25.0,blocks,
205,602,217,39.0,31.0,,1.0,"[7, 7, 4, 8, 5, 8]","[5, 8, 4, 5, 4, 5]",12.25,,70.0,Pink to Blue,Green to Orange,,,,,434.8999999761581,,,,ua60hkvff,training_FR,,664441,26.0,blocks,
206,603,218,30.0,26.0,,1.0,"[6, 8, 8, 1, 2, 5]","[4, 6, 2, 8, 4, 2]",12.25,,70.0,Pink to Blue,Green to Orange,,,,,546.0,,,,ua60hkvff,training_FR,,666992,27.0,blocks,
207,604,219,22.0,32.0,,1.0,"[1, 5, 2, 7, 3, 4]","[4, 5, 8, 5, 4, 6]",12.25,,74.0,Pink to Blue,Green to Orange,,,,,660.1000000238419,,,,ua60hkvff,training_FR,,669657,28.0,blocks,
208,605,220,20.0,22.0,,1.0,"[4, 2, 4, 4, 2, 4]","[6, 6, 5, 1, 2, 2]",12.25,,74.0,Pink to Blue,Green to Orange,,,,,477.5,,,,ua60hkvff,training_FR,,672140,29.0,blocks,
209,606,221,31.0,22.0,,1.0,"[1, 4, 6, 8, 4, 8]","[2, 4, 1, 6, 7, 2]",12.25,,70.0,Pink to Blue,Green to Orange,,,,,479.4000000357628,,,,ua60hkvff,training_FR,,674626,30.0,blocks,
210,607,222,34.0,30.0,,1.0,"[4, 3, 7, 5, 7, 8]","[5, 4, 5, 7, 1, 8]",12.25,,70.0,Pink to Blue,Green to Orange,,,,,1067.0,,,,ua60hkvff,experiment_FR,,725340,1.0,blocks-exp,
211,608,223,18.0,44.0,,1.0,"[1, 3, 2, 1, 5, 6]","[8, 7, 7, 7, 8, 7]",12.25,,74.0,Pink to Blue,Green to Orange,,,,,497.8000000119209,,,,ua60hkvff,experiment_FR,,726842,2.0,blocks-exp,
212,609,224,25.0,19.0,,1.0,"[1, 7, 7, 1, 7, 2]","[8, 1, 4, 1, 3, 2]",12.25,,70.0,Pink to Blue,Green to Orange,,,,,777.5,,,,ua60hkvff,experiment_FR,,728640,3.0,blocks-exp,
213,610,225,32.0,23.0,,1.0,"[7, 1, 6, 8, 2, 8]","[1, 2, 2, 8, 4, 6]",12.25,,70.0,Pink to Blue,Green to Orange,,,,,830.6000000238419,,,,ua60hkvff,experiment_FR,,730485,4.0,blocks-exp,
214,611,226,32.0,14.0,,1.0,"[8, 4, 2, 8, 7, 3]","[1, 3, 4, 1, 3, 2]",12.25,,70.0,Pink to Blue,Green to Orange,,,,,701.3000000119209,,,,ua60hkvff,experiment_FR,,732190,5.0,blocks-exp,
215,612,227,20.0,37.0,,1.0,"[2, 3, 1, 3, 8, 3]","[1, 7, 8, 7, 7, 7]",12.25,,74.0,Pink to Blue,Green to Orange,,,,,529.1000000238419,,,,ua60hkvff,experiment_FR,,733724,6.0,blocks-exp,
216,613,228,23.0,14.0,,1.0,"[4, 8, 8, 1, 1, 1]","[6, 2, 3, 1, 1, 1]",12.25,,70.0,Pink to Blue,Green to Orange,,,,,585.0999999642372,,,,ua60hkvff,experiment_FR,,735321,7.0,blocks-exp,
217,614,229,35.0,24.0,,1.0,"[5, 3, 3, 8, 8, 8]","[3, 4, 7, 5, 3, 2]",12.25,,70.0,Pink to Blue,Green to Orange,,,,,587.8000000119209,,,,ua60hkvff,experiment_FR,,736914,8.0,blocks-exp,
218,615,230,38.0,25.0,,1.0,"[8, 6, 7, 6, 3, 8]","[7, 3, 7, 3, 3, 2]",12.25,,70.0,Pink to Blue,Green to Orange,,,,,923.600000023842,,,,ua60hkvff,experiment_FR,,738842,9.0,blocks-exp,
219,616,231,18.0,19.0,,0.0,"[7, 1, 6, 2, 1, 1]","[2, 4, 4, 7, 1, 1]",12.25,,70.0,Pink to Blue,Green to Orange,,,,,685.3999999761581,,,,ua60hkvff,experiment_FR,,740533,10.0,blocks-exp,
220,617,232,27.0,33.0,,1.0,"[3, 1, 6, 8, 8, 1]","[8, 6, 1, 8, 3, 7]",12.25,,74.0,Pink to Blue,Green to Orange,,,,,1912.200000047684,,,,ua60hkvff,experiment_FR,,743450,11.0,blocks-exp,
221,618,233,31.0,21.0,,1.0,"[5, 8, 4, 2, 5, 7]","[1, 4, 2, 7, 6, 1]",12.25,,70.0,Pink to Blue,Green to Orange,,,,,1624.4000000357628,,,,ua60hkvff,experiment_FR,,746087,12.0,blocks-exp,
222,619,234,22.0,31.0,,1.0,"[7, 3, 3, 4, 2, 3]","[5, 4, 2, 7, 5, 8]",12.25,,74.0,Pink to Blue,Green to Orange,,,,,1949.5,,,,ua60hkvff,experiment_FR,,749040,13.0,blocks-exp,
223,620,235,23.0,31.0,,1.0,"[7, 1, 1, 8, 1, 5]","[5, 8, 5, 1, 4, 8]",12.25,,74.0,Pink to Blue,Green to Orange,,,,,1332.2999999523165,,,,ua60hkvff,experiment_FR,,751391,14.0,blocks-exp,
224,621,236,24.0,30.0,,1.0,"[2, 7, 4, 7, 3, 1]","[7, 7, 8, 1, 2, 5]",12.25,,74.0,Pink to Blue,Green to Orange,,,,,655.1000000238419,,,,ua60hkvff,experiment_FR,,753062,15.0,blocks-exp,
225,622,237,26.0,30.0,,1.0,"[3, 6, 1, 2, 8, 6]","[8, 2, 7, 4, 7, 2]",12.25,,74.0,Pink to Blue,Green to Orange,,,,,615.4000000357628,,,,ua60hkvff,experiment_FR,,754691,16.0,blocks-exp,
226,623,238,31.0,30.0,,0.0,"[6, 4, 8, 7, 4, 2]","[7, 4, 1, 8, 3, 7]",12.25,,74.0,Pink to Blue,Green to Orange,,,,,1315.5,,,,ua60hkvff,experiment_FR,,757018,17.0,blocks-exp,
227,624,239,30.0,25.0,,1.0,"[8, 6, 4, 6, 1, 5]","[8, 2, 4, 3, 2, 6]",12.25,,70.0,Pink to Blue,Green to Orange,,,,,1238.800000011921,,,,ua60hkvff,experiment_FR,,759273,18.0,blocks-exp,
228,625,240,19.0,24.0,,1.0,"[7, 4, 2, 4, 1, 1]","[1, 5, 8, 2, 4, 4]",12.25,,74.0,Pink to Blue,Green to Orange,,,,,993.9000000357628,,,,ua60hkvff,experiment_FR,,761272,19.0,blocks-exp,
229,626,241,23.0,34.0,,1.0,"[7, 4, 1, 2, 7, 2]","[2, 7, 3, 7, 8, 7]",12.25,,74.0,Pink to Blue,Green to Orange,,,,,599.7999999523163,,,,ua60hkvff,experiment_FR,,762880,20.0,blocks-exp,
230,627,242,15.0,12.0,,1.0,"[1, 2, 2, 2, 6, 2]","[2, 2, 1, 1, 2, 4]",12.25,,70.0,Pink to Blue,Green to Orange,,,,,821.3000000119209,,,,ua60hkvff,experiment_FR,,764707,21.0,blocks-exp,
231,628,243,14.0,28.0,,1.0,"[5, 2, 1, 3, 2, 1]","[7, 7, 1, 2, 4, 7]",12.25,,74.0,Pink to Blue,Green to Orange,,,,,485.8000000119209,,,,ua60hkvff,experiment_FR,,766197,22.0,blocks-exp,
232,629,244,17.0,30.0,,1.0,"[4, 1, 2, 5, 1, 4]","[6, 2, 7, 5, 6, 4]",12.25,,74.0,Pink to Blue,Green to Orange,,,,,730.1000000238419,,,,ua60hkvff,experiment_FR,,767949,23.0,blocks-exp,
233,630,245,24.0,24.0,,0.0,"[8, 3, 4, 4, 2, 3]","[1, 6, 4, 3, 8, 2]",12.25,,70.0,Pink to Blue,Green to Orange,,,,,1155.0,,,,ua60hkvff,experiment_FR,,770118,24.0,blocks-exp,
234,631,246,27.0,36.0,,0.0,"[6, 7, 2, 2, 2, 8]","[5, 2, 8, 7, 8, 6]",12.25,,70.0,Pink to Blue,Green to Orange,,,,,905.100000023842,,,,ua60hkvff,experiment_FR,,772027,25.0,blocks-exp,
235,632,247,23.0,18.0,,1.0,"[6, 7, 4, 1, 1, 4]","[1, 3, 5, 7, 1, 1]",12.25,,70.0,Pink to Blue,Green to Orange,,,,,515.3000000119209,,,,ua60hkvff,experiment_FR,,773547,26.0,blocks-exp,
236,633,248,28.0,25.0,,1.0,"[2, 6, 7, 2, 8, 3]","[7, 6, 3, 1, 1, 7]",12.25,,70.0,Pink to Blue,Green to Orange,,,,,1384.5,,,,ua60hkvff,experiment_FR,,775946,27.0,blocks-exp,
237,634,249,31.0,35.0,,0.0,"[1, 8, 6, 6, 2, 8]","[6, 3, 8, 6, 7, 5]",12.25,,70.0,Pink to Blue,Green to Orange,,,,,1671.600000023842,,,,ua60hkvff,experiment_FR,,778621,28.0,blocks-exp,
238,635,250,25.0,28.0,,1.0,"[6, 2, 6, 3, 2, 6]","[8, 7, 2, 4, 5, 2]",12.25,,74.0,Pink to Blue,Green to Orange,,,,,745.8000000119209,,,,ua60hkvff,experiment_FR,,780371,29.0,blocks-exp,
239,636,251,36.0,23.0,,1.0,"[8, 7, 4, 8, 2, 7]","[3, 7, 2, 5, 4, 2]",12.25,,70.0,Pink to Blue,Green to Orange,,,,,557.7000000476837,,,,ua60hkvff,experiment_FR,,781932,30.0,blocks-exp,
240,637,252,28.0,22.0,,1.0,"[5, 3, 4, 4, 7, 5]","[4, 3, 3, 3, 2, 7]",12.25,,70.0,Pink to Blue,Green to Orange,,,,,1587.300000011921,,,,ua60hkvff,experiment_FR,,784537,31.0,blocks-exp,
241,638,253,37.0,36.0,,0.0,"[3, 8, 8, 6, 7, 5]","[7, 8, 8, 2, 4, 7]",12.25,,74.0,Pink to Blue,Green to Orange,,,,,800.7999999523163,,,,ua60hkvff,experiment_FR,,786342,32.0,blocks-exp,
242,639,254,21.0,29.0,,1.0,"[4, 8, 1, 3, 3, 2]","[1, 3, 7, 5, 5, 8]",12.25,,74.0,Pink to Blue,Green to Orange,,,,,1009.8000000119208,,,,ua60hkvff,experiment_FR,,788363,33.0,blocks-exp,
243,640,255,24.0,30.0,,1.0,"[6, 7, 5, 2, 3, 1]","[4, 4, 6, 4, 4, 8]",12.25,,74.0,Pink to Blue,Green to Orange,,,,,1106.5,,,,ua60hkvff,experiment_FR,,790484,34.0,blocks-exp,
244,641,256,29.0,24.0,,1.0,"[7, 8, 4, 5, 3, 2]","[5, 7, 2, 3, 4, 3]",12.25,,70.0,Pink to Blue,Green to Orange,,,,,878.3000000119209,,,,ua60hkvff,experiment_FR,,792367,35.0,blocks-exp,
245,642,257,27.0,32.0,,1.0,"[4, 8, 3, 2, 7, 3]","[2, 3, 8, 3, 8, 8]",12.25,,74.0,Pink to Blue,Green to Orange,,,,,540.8999999761581,,,,ua60hkvff,experiment_FR,,793920,36.0,blocks-exp,
246,643,258,22.0,26.0,,0.0,"[8, 1, 6, 5, 1, 1]","[6, 4, 5, 4, 2, 5]",12.25,,70.0,Pink to Blue,Green to Orange,,,,,595.5,,,,ua60hkvff,experiment_FR,,795520,37.0,blocks-exp,
247,644,259,29.0,15.0,,1.0,"[2, 3, 4, 7, 7, 6]","[1, 3, 1, 2, 6, 2]",12.25,,70.0,Pink to Blue,Green to Orange,,,,,579.9000000357628,,,,ua60hkvff,experiment_FR,,797103,38.0,blocks-exp,
248,645,260,14.0,23.0,,1.0,"[1, 2, 4, 2, 1, 4]","[2, 3, 3, 4, 3, 8]",12.25,,74.0,Pink to Blue,Green to Orange,,,,,608.3000000119209,,,,ua60hkvff,experiment_FR,,798717,39.0,blocks-exp,
249,646,261,19.0,24.0,,0.0,"[3, 6, 1, 6, 1, 2]","[2, 5, 3, 3, 5, 6]",12.25,,70.0,Pink to Blue,Green to Orange,,,,,627.3999999761581,,,,ua60hkvff,experiment_FR,,800349,40.0,blocks-exp,
250,647,262,19.0,21.0,,1.0,"[3, 2, 1, 6, 4, 3]","[4, 2, 3, 7, 4, 1]",12.25,,74.0,Pink to Blue,Green to Orange,,,,,1006.6999999880792,,,,ua60hkvff,experiment_FR,,802360,41.0,blocks-exp,
251,648,263,23.0,34.0,,1.0,"[3, 3, 3, 5, 6, 3]","[8, 8, 4, 4, 6, 4]",12.25,,74.0,Pink to Blue,Green to Orange,,,,,567.3000000119209,,,,ua60hkvff,experiment_FR,,803931,42.0,blocks-exp,
252,649,264,30.0,26.0,,1.0,"[5, 1, 4, 6, 7, 7]","[4, 4, 6, 7, 2, 3]",12.25,,70.0,Pink to Blue,Green to Orange,,,,,699.6000000238419,,,,ua60hkvff,experiment_FR,,805635,43.0,blocks-exp,
253,650,265,26.0,17.0,,1.0,"[6, 8, 1, 4, 1, 6]","[2, 1, 3, 1, 3, 7]",12.25,,70.0,Pink to Blue,Green to Orange,,,,,629.8000000119209,,,,ua60hkvff,experiment_FR,,807270,44.0,blocks-exp,
254,651,266,29.0,30.0,,0.0,"[6, 3, 8, 8, 2, 2]","[7, 8, 1, 5, 6, 3]",12.25,,70.0,Pink to Blue,Green to Orange,,,,,1103.300000011921,,,,ua60hkvff,experiment_FR,,809381,45.0,blocks-exp,
255,652,267,29.0,21.0,,0.0,"[7, 1, 5, 5, 3, 8]","[3, 1, 6, 8, 2, 1]",12.25,,74.0,Pink to Blue,Green to Orange,,,,,1291.899999976158,,,,ua60hkvff,experiment_FR,,811681,46.0,blocks-exp,
256,653,268,27.0,26.0,,1.0,"[8, 7, 2, 7, 1, 2]","[8, 2, 1, 6, 7, 2]",12.25,,70.0,Pink to Blue,Green to Orange,,,,,852.7999999523163,,,,ua60hkvff,experiment_FR,,813538,47.0,blocks-exp,
257,654,269,19.0,29.0,,1.0,"[2, 5, 5, 1, 4, 2]","[7, 2, 6, 3, 6, 5]",12.25,,74.0,Pink to Blue,Green to Orange,,,,,533.3000000119209,,,,ua60hkvff,experiment_FR,,815075,48.0,blocks-exp,
258,655,270,18.0,20.0,,1.0,"[3, 2, 2, 1, 4, 6]","[1, 8, 2, 6, 1, 2]",12.25,,74.0,Pink to Blue,Green to Orange,,,,,890.7000000476837,,,,ua60hkvff,experiment_FR,,816971,49.0,blocks-exp,
259,656,271,10.0,28.0,,1.0,"[1, 3, 1, 3, 1, 1]","[8, 7, 1, 6, 5, 1]",12.25,,74.0,Pink to Blue,Green to Orange,,,,,494.6999999880791,,,,ua60hkvff,experiment_FR,,818471,50.0,blocks-exp,
260,657,272,30.0,34.0,,1.0,"[2, 1, 7, 5, 7, 8]","[4, 8, 8, 5, 3, 6]",12.25,,74.0,Pink to Blue,Green to Orange,,,,,1055.2000000476835,,,,ua60hkvff,experiment_FR,,820546,51.0,blocks-exp,
261,658,273,33.0,31.0,,0.0,"[3, 6, 4, 5, 8, 7]","[8, 4, 4, 8, 6, 1]",12.25,,74.0,Pink to Blue,Green to Orange,,,,,884.1999999880791,,,,ua60hkvff,experiment_FR,,822455,52.0,blocks-exp,
262,659,274,34.0,30.0,,1.0,"[3, 7, 8, 1, 8, 7]","[8, 5, 5, 8, 1, 3]",12.25,,70.0,Pink to Blue,Green to Orange,,,,,832.5,,,,ua60hkvff,experiment_FR,,824302,53.0,blocks-exp,
263,660,275,33.0,29.0,,0.0,"[5, 6, 7, 3, 7, 5]","[8, 5, 2, 4, 4, 6]",12.25,,74.0,Pink to Blue,Green to Orange,,,,,991.100000023842,,,,ua60hkvff,experiment_FR,,826307,54.0,blocks-exp,
264,661,276,25.0,31.0,,1.0,"[7, 1, 4, 8, 1, 4]","[8, 4, 5, 8, 5, 1]",12.25,,74.0,Pink to Blue,Green to Orange,,,,,739.9000000357628,,,,ua60hkvff,experiment_FR,,828060,55.0,blocks-exp,
265,662,277,28.0,18.0,,1.0,"[8, 8, 2, 2, 3, 5]","[6, 1, 3, 5, 1, 2]",12.25,,70.0,Pink to Blue,Green to Orange,,,,,911.600000023842,,,,ua60hkvff,experiment_FR,,829975,56.0,blocks-exp,
266,663,278,25.0,21.0,,1.0,"[1, 7, 5, 2, 2, 8]","[2, 2, 4, 3, 2, 8]",12.25,,70.0,Pink to Blue,Green to Orange,,,,,1441.9000000357628,,,,ua60hkvff,experiment_FR,,832420,57.0,blocks-exp,
267,664,279,28.0,37.0,,1.0,"[2, 8, 1, 4, 5, 8]","[8, 5, 7, 7, 3, 7]",12.25,,74.0,Pink to Blue,Green to Orange,,,,,566.0,,,,ua60hkvff,experiment_FR,,833991,58.0,blocks-exp,
268,665,280,34.0,24.0,,1.0,"[6, 6, 6, 2, 8, 6]","[4, 5, 1, 6, 2, 6]",12.25,,70.0,Pink to Blue,Green to Orange,,,,,761.7999999523163,,,,ua60hkvff,experiment_FR,,835756,59.0,blocks-exp,
269,666,281,21.0,34.0,,1.0,"[2, 5, 3, 3, 6, 2]","[4, 6, 4, 8, 4, 8]",12.25,,74.0,Pink to Blue,Green to Orange,,,,,582.7000000476837,,,,ua60hkvff,experiment_FR,,837343,60.0,blocks-exp,
270,667,282,25.0,30.0,,1.0,"[2, 2, 5, 5, 3, 8]","[5, 8, 3, 2, 4, 8]",12.25,,74.0,Pink to Blue,Green to Orange,,,,,592.3999999761581,,,,ua60hkvff,experiment_FR,,838939,61.0,blocks-exp,
271,668,283,26.0,30.0,,1.0,"[7, 3, 5, 3, 2, 6]","[1, 6, 3, 7, 8, 5]",12.25,,74.0,Pink to Blue,Green to Orange,,,,,1337.7999999523165,,,,ua60hkvff,experiment_FR,,841282,62.0,blocks-exp,
272,669,284,31.0,23.0,,0.0,"[3, 4, 7, 6, 7, 4]","[2, 6, 1, 1, 5, 8]",12.25,,74.0,Pink to Blue,Green to Orange,,,,,947.7000000476836,,,,ua60hkvff,experiment_FR,,843234,63.0,blocks-exp,
273,670,285,27.0,30.0,,0.0,"[4, 8, 7, 4, 2, 2]","[7, 5, 8, 4, 1, 5]",12.25,,70.0,Pink to Blue,Green to Orange,,,,,686.4000000357628,,,,ua60hkvff,experiment_FR,,844924,64.0,blocks-exp,
274,671,286,27.0,23.0,,1.0,"[3, 7, 5, 2, 4, 6]","[5, 4, 1, 4, 8, 1]",12.25,,70.0,Pink to Blue,Green to Orange,,,,,1135.600000023842,,,,ua60hkvff,experiment_FR,,847062,65.0,blocks-exp,
275,672,287,26.0,31.0,,1.0,"[1, 4, 8, 8, 2, 3]","[7, 5, 7, 1, 3, 8]",12.25,,74.0,Pink to Blue,Green to Orange,,,,,541.2000000476837,,,,ua60hkvff,experiment_FR,,848611,66.0,blocks-exp,
276,673,288,32.0,18.0,,1.0,"[6, 1, 8, 4, 7, 6]","[4, 2, 2, 4, 1, 5]",12.25,,70.0,Pink to Blue,Green to Orange,,,,,653.7000000476837,,,,ua60hkvff,experiment_FR,,850276,67.0,blocks-exp,
277,674,289,25.0,35.0,,1.0,"[7, 2, 3, 3, 7, 3]","[4, 7, 6, 2, 8, 8]",12.25,,74.0,Pink to Blue,Green to Orange,,,,,452.5999999642372,,,,ua60hkvff,experiment_FR,,851750,68.0,blocks-exp,
278,675,290,25.0,22.0,,0.0,"[8, 3, 3, 4, 2, 5]","[1, 4, 6, 3, 6, 2]",12.25,,74.0,Pink to Blue,Green to Orange,,,,,1289.5,,,,ua60hkvff,experiment_FR,,854055,69.0,blocks-exp,
279,676,291,14.0,31.0,,1.0,"[1, 1, 5, 3, 3, 1]","[1, 6, 5, 6, 6, 7]",12.25,,74.0,Pink to Blue,Green to Orange,,,,,463.6999999880791,,,,ua60hkvff,experiment_FR,,855531,70.0,blocks-exp,
280,677,292,29.0,29.0,,0.0,"[8, 6, 7, 3, 4, 1]","[4, 7, 1, 6, 7, 4]",12.25,,74.0,Pink to Blue,Green to Orange,,,,,887.6999999880791,,,,ua60hkvff,experiment_FR,,857427,71.0,blocks-exp,
281,678,293,28.0,32.0,,1.0,"[4, 4, 3, 3, 6, 8]","[5, 8, 2, 5, 6, 6]",12.25,,74.0,Pink to Blue,Green to Orange,,,,,980.0,,,,ua60hkvff,experiment_FR,,859423,72.0,blocks-exp,
282,679,294,26.0,26.0,,0.0,"[1, 8, 1, 8, 2, 6]","[4, 8, 5, 3, 4, 2]",12.25,,70.0,Pink to Blue,Green to Orange,,,,,603.8999999761581,,,,ua60hkvff,experiment_FR,,861042,73.0,blocks-exp,
283,680,295,23.0,34.0,,1.0,"[1, 3, 7, 5, 5, 2]","[7, 8, 5, 1, 6, 7]",12.25,,74.0,Pink to Blue,Green to Orange,,,,,500.3000000119209,,,,ua60hkvff,experiment_FR,,862546,74.0,blocks-exp,
284,681,296,22.0,32.0,,1.0,"[2, 6, 3, 3, 1, 7]","[2, 6, 3, 8, 5, 8]",12.25,,74.0,Pink to Blue,Green to Orange,,,,,659.8000000119209,,,,ua60hkvff,experiment_FR,,864211,75.0,blocks-exp,
285,682,297,25.0,24.0,,1.0,"[4, 6, 3, 6, 5, 1]","[7, 2, 2, 3, 4, 6]",12.25,,70.0,Pink to Blue,Green to Orange,,,,,1053.899999976158,,,,ua60hkvff,experiment_FR,,866268,76.0,blocks-exp,
286,683,298,17.0,27.0,,1.0,"[4, 3, 1, 1, 2, 6]","[6, 7, 2, 4, 4, 4]",12.25,,74.0,Pink to Blue,Green to Orange,,,,,824.0999999642372,,,,ua60hkvff,experiment_FR,,868105,77.0,blocks-exp,
287,684,299,30.0,25.0,,1.0,"[6, 8, 6, 1, 3, 6]","[2, 3, 3, 3, 6, 8]",12.25,,70.0,Pink to Blue,Green to Orange,,,,,795.5,,,,ua60hkvff,experiment_FR,,869905,78.0,blocks-exp,
288,685,300,25.0,30.0,,1.0,"[7, 6, 2, 1, 5, 4]","[1, 7, 6, 7, 7, 2]",12.25,,74.0,Pink to Blue,Green to Orange,,,,,567.6999999880791,,,,ua60hkvff,experiment_FR,,871476,79.0,blocks-exp,
289,686,301,30.0,22.0,,1.0,"[7, 8, 1, 4, 4, 6]","[4, 1, 7, 5, 2, 3]",12.25,,70.0,Pink to Blue,Green to Orange,,,,,585.6000000238419,,,,ua60hkvff,experiment_FR,,873073,80.0,blocks-exp,
290,687,302,32.0,30.0,,1.0,"[8, 5, 2, 8, 8, 1]","[7, 4, 3, 8, 5, 3]",12.25,,70.0,Pink to Blue,Green to Orange,,,,,618.1000000238419,,,,ua60hkvff,experiment_FR,,874704,81.0,blocks-exp,
291,688,303,24.0,19.0,,0.0,"[4, 3, 5, 4, 2, 6]","[5, 6, 1, 4, 2, 1]",12.25,,74.0,Pink to Blue,Green to Orange,,,,,464.5999999642372,,,,ua60hkvff,experiment_FR,,876174,82.0,blocks-exp,
292,689,304,19.0,25.0,,1.0,"[4, 5, 1, 1, 5, 3]","[7, 6, 2, 5, 4, 1]",12.25,,74.0,Pink to Blue,Green to Orange,,,,,566.8000000119209,,,,ua60hkvff,experiment_FR,,877745,83.0,blocks-exp,
293,690,305,23.0,18.0,,1.0,"[4, 3, 1, 7, 3, 5]","[7, 1, 3, 1, 2, 4]",12.25,,70.0,Pink to Blue,Green to Orange,,,,,644.4000000357628,,,,ua60hkvff,experiment_FR,,879394,84.0,blocks-exp,
294,691,306,31.0,27.0,,1.0,"[8, 6, 2, 7, 4, 4]","[5, 3, 4, 6, 3, 6]",12.25,,70.0,Pink to Blue,Green to Orange,,,,,457.6999999880791,,,,ua60hkvff,experiment_FR,,880864,85.0,blocks-exp,
295,692,307,31.0,22.0,,1.0,"[7, 5, 8, 8, 1, 2]","[3, 2, 6, 2, 5, 4]",12.25,,70.0,Pink to Blue,Green to Orange,,,,,599.6999999880791,,,,ua60hkvff,experiment_FR,,882467,86.0,blocks-exp,
296,693,308,23.0,19.0,,1.0,"[8, 4, 3, 3, 4, 1]","[8, 2, 1, 5, 1, 2]",12.25,,70.0,Pink to Blue,Green to Orange,,,,,1226.300000011921,,,,ua60hkvff,experiment_FR,,884698,87.0,blocks-exp,
297,694,309,34.0,31.0,,0.0,"[7, 6, 7, 2, 6, 6]","[5, 8, 2, 6, 2, 8]",12.25,,74.0,Pink to Blue,Green to Orange,,,,,485.6999999880791,,,,ua60hkvff,experiment_FR,,886187,88.0,blocks-exp,
298,695,310,31.0,34.0,,1.0,"[8, 6, 4, 2, 3, 8]","[1, 2, 8, 8, 7, 8]",12.25,,74.0,Pink to Blue,Green to Orange,,,,,471.1999999880791,,,,ua60hkvff,experiment_FR,,887663,89.0,blocks-exp,
299,696,311,22.0,39.0,,1.0,"[5, 3, 4, 5, 1, 4]","[5, 7, 8, 3, 8, 8]",12.25,,74.0,Pink to Blue,Green to Orange,,,,,498.7999999523163,,,,ua60hkvff,experiment_FR,,889166,90.0,blocks-exp,
300,697,312,31.0,20.0,,1.0,"[3, 2, 8, 7, 7, 4]","[3, 3, 4, 3, 1, 6]",12.25,,70.0,Pink to Blue,Green to Orange,,,,,631.5,,,,ua60hkvff,experiment_FR,,890803,91.0,blocks-exp,
301,698,313,29.0,34.0,,1.0,"[4, 7, 6, 5, 6, 1]","[4, 6, 7, 6, 3, 8]",12.25,,74.0,Pink to Blue,Green to Orange,,,,,569.3000000119209,,,,ua60hkvff,experiment_FR,,892376,92.0,blocks-exp,
302,699,314,32.0,29.0,,1.0,"[1, 8, 8, 3, 7, 5]","[3, 7, 6, 3, 6, 4]",12.25,,70.0,Pink to Blue,Green to Orange,,,,,702.3999999761581,,,,ua60hkvff,experiment_FR,,894083,93.0,blocks-exp,
303,700,315,35.0,24.0,,1.0,"[3, 5, 3, 8, 8, 8]","[5, 8, 5, 2, 3, 1]",12.25,,70.0,Pink to Blue,Green to Orange,,,,,481.60000002384186,,,,ua60hkvff,experiment_FR,,895569,94.0,blocks-exp,
304,701,316,36.0,29.0,,1.0,"[8, 5, 6, 3, 8, 6]","[7, 3, 3, 3, 5, 8]",12.25,,70.0,Pink to Blue,Green to Orange,,,,,540.4000000357628,,,,ua60hkvff,experiment_FR,,897113,95.0,blocks-exp,
305,702,317,18.0,20.0,,0.0,"[1, 8, 3, 1, 3, 2]","[4, 2, 3, 4, 2, 5]",12.25,,70.0,Pink to Blue,Green to Orange,,,,,530.3999999761581,,,,ua60hkvff,experiment_FR,,898656,96.0,blocks-exp,
306,703,318,29.0,21.0,,1.0,"[5, 5, 8, 4, 4, 3]","[2, 2, 1, 8, 6, 2]",12.25,,70.0,Pink to Blue,Green to Orange,,,,,867.6999999880791,,,,ua60hkvff,experiment_FR,,900528,97.0,blocks-exp,
307,704,319,29.0,20.0,,1.0,"[6, 1, 2, 8, 7, 5]","[3, 3, 3, 1, 4, 6]",12.25,,70.0,Pink to Blue,Green to Orange,,,,,900.4000000357628,,,,ua60hkvff,experiment_FR,,902432,98.0,blocks-exp,
308,705,320,31.0,18.0,,1.0,"[4, 8, 8, 2, 7, 2]","[1, 1, 8, 3, 4, 1]",12.25,,70.0,Pink to Blue,Green to Orange,,,,,551.5,,,,ua60hkvff,experiment_FR,,904002,99.0,blocks-exp,
309,706,321,19.0,25.0,,1.0,"[4, 2, 8, 2, 2, 1]","[3, 5, 1, 1, 7, 8]",12.25,,74.0,Pink to Blue,Green to Orange,,,,,1047.5999999642372,,,,ua60hkvff,experiment_FR,,906055,100.0,blocks-exp,
310,707,322,35.0,31.0,,1.0,"[8, 2, 3, 7, 7, 8]","[7, 8, 1, 8, 4, 3]",12.25,,70.0,Pink to Blue,Green to Orange,,,,,519.8999999761581,,,,ua60hkvff,experiment_FR,,907584,101.0,blocks-exp,
311,708,323,31.0,20.0,,1.0,"[4, 3, 4, 6, 8, 6]","[2, 4, 1, 8, 4, 1]",12.25,,70.0,Pink to Blue,Green to Orange,,,,,998.899999976158,,,,ua60hkvff,experiment_FR,,909586,102.0,blocks-exp,
312,709,324,28.0,24.0,,1.0,"[8, 3, 1, 6, 4, 6]","[8, 5, 5, 1, 1, 4]",12.25,,70.0,Pink to Blue,Green to Orange,,,,,601.6000000238419,,,,ua60hkvff,experiment_FR,,911192,103.0,blocks-exp,
313,710,325,30.0,21.0,,1.0,"[5, 6, 7, 3, 3, 6]","[5, 3, 2, 2, 8, 1]",12.25,,70.0,Pink to Blue,Green to Orange,,,,,865.5999999642372,,,,ua60hkvff,experiment_FR,,913064,104.0,blocks-exp,
314,711,326,30.0,24.0,,1.0,"[3, 5, 7, 7, 1, 7]","[7, 1, 6, 3, 2, 5]",12.25,,70.0,Pink to Blue,Green to Orange,,,,,579.1999999880791,,,,ua60hkvff,experiment_FR,,914659,105.0,blocks-exp,
315,712,327,27.0,31.0,,1.0,"[5, 8, 4, 1, 4, 5]","[8, 4, 5, 2, 6, 6]",12.25,,74.0,Pink to Blue,Green to Orange,,,,,1069.2000000476835,,,,ua60hkvff,experiment_FR,,916732,106.0,blocks-exp,
316,713,328,27.0,26.0,,0.0,"[3, 3, 3, 7, 8, 3]","[5, 7, 6, 1, 6, 1]",12.25,,74.0,Pink to Blue,Green to Orange,,,,,977.8000000119208,,,,ua60hkvff,experiment_FR,,918714,107.0,blocks-exp,
317,714,329,32.0,26.0,,0.0,"[7, 5, 6, 4, 3, 7]","[8, 2, 5, 7, 3, 1]",12.25,,74.0,Pink to Blue,Green to Orange,,,,,1010.9000000357628,,,,ua60hkvff,experiment_FR,,920737,108.0,blocks-exp,
318,715,330,20.0,26.0,,1.0,"[6, 3, 6, 1, 3, 1]","[1, 4, 6, 6, 8, 1]",12.25,,74.0,Pink to Blue,Green to Orange,,,,,1213.5,,,,ua60hkvff,experiment_FR,,922962,109.0,blocks-exp,
319,716,331,25.0,29.0,,0.0,"[5, 8, 3, 1, 2, 6]","[5, 4, 6, 6, 1, 7]",12.25,,70.0,Pink to Blue,Green to Orange,,,,,472.10000002384186,,,,ua60hkvff,experiment_FR,,924450,110.0,blocks-exp,
320,717,332,21.0,29.0,,1.0,"[1, 3, 3, 7, 4, 3]","[5, 4, 5, 6, 1, 8]",12.25,,74.0,Pink to Blue,Green to Orange,,,,,602.3999999761581,,,,ua60hkvff,experiment_FR,,926056,111.0,blocks-exp,
321,718,333,22.0,15.0,,0.0,"[3, 1, 2, 3, 6, 7]","[5, 1, 1, 2, 3, 3]",12.25,,74.0,Pink to Blue,Green to Orange,,,,,819.3000000119209,,,,ua60hkvff,experiment_FR,,927879,112.0,blocks-exp,
322,719,334,25.0,28.0,,1.0,"[3, 7, 4, 3, 4, 4]","[5, 5, 1, 6, 8, 3]",12.25,,74.0,Pink to Blue,Green to Orange,,,,,464.1999999880791,,,,ua60hkvff,experiment_FR,,929348,113.0,blocks-exp,
323,720,335,32.0,29.0,,0.0,"[4, 6, 1, 8, 5, 8]","[8, 1, 8, 3, 7, 2]",12.25,,74.0,Pink to Blue,Green to Orange,,,,,693.8999999761581,,,,ua60hkvff,experiment_FR,,931054,114.0,blocks-exp,
324,721,336,31.0,24.0,,1.0,"[7, 3, 3, 6, 8, 4]","[2, 3, 4, 4, 8, 3]",12.25,,70.0,Pink to Blue,Green to Orange,,,,,603.3999999761581,,,,ua60hkvff,experiment_FR,,932673,115.0,blocks-exp,
325,722,337,27.0,28.0,,1.0,"[8, 4, 1, 1, 6, 7]","[2, 2, 5, 3, 8, 8]",12.25,,74.0,Pink to Blue,Green to Orange,,,,,554.5,,,,ua60hkvff,experiment_FR,,934231,116.0,blocks-exp,
326,723,338,32.0,32.0,,0.0,"[5, 3, 6, 2, 8, 8]","[7, 1, 8, 7, 1, 8]",12.25,,74.0,Pink to Blue,Green to Orange,,,,,1498.399999976158,,,,ua60hkvff,experiment_FR,,936734,117.0,blocks-exp,
327,724,339,32.0,27.0,,0.0,"[4, 7, 8, 2, 3, 8]","[8, 6, 5, 5, 2, 1]",12.25,,74.0,Pink to Blue,Green to Orange,,,,,718.6999999880791,,,,ua60hkvff,experiment_FR,,938456,118.0,blocks-exp,
328,725,340,25.0,26.0,,1.0,"[5, 2, 4, 7, 4, 3]","[1, 2, 6, 4, 8, 5]",12.25,,74.0,Pink to Blue,Green to Orange,,,,,820.8000000119209,,,,ua60hkvff,experiment_FR,,940281,119.0,blocks-exp,
329,726,341,29.0,32.0,,0.0,"[8, 7, 8, 1, 2, 3]","[7, 4, 7, 5, 7, 2]",12.25,,70.0,Pink to Blue,Green to Orange,,,,,773.3000000119209,,,,ua60hkvff,experiment_FR,,942068,120.0,blocks-exp,
330,727,342,29.0,33.0,,1.0,"[6, 4, 5, 1, 6, 7]","[3, 6, 6, 3, 8, 7]",12.25,,74.0,Pink to Blue,Green to Orange,,,,,517.5,,,,ua60hkvff,experiment_FR,,943588,121.0,blocks-exp,
331,728,343,24.0,25.0,,0.0,"[4, 1, 5, 7, 5, 2]","[2, 4, 1, 7, 5, 6]",12.25,,70.0,Pink to Blue,Green to Orange,,,,,1803.5999999642368,,,,ua60hkvff,experiment_FR,,946395,122.0,blocks-exp,
332,729,344,28.0,21.0,,1.0,"[8, 2, 1, 4, 8, 5]","[2, 3, 4, 1, 3, 8]",12.25,,70.0,Pink to Blue,Green to Orange,,,,,551.8000000119209,,,,ua60hkvff,experiment_FR,,947955,123.0,blocks-exp,
333,730,345,27.0,27.0,,1.0,"[3, 2, 8, 3, 7, 4]","[8, 4, 1, 4, 3, 7]",12.25,,74.0,Pink to Blue,Green to Orange,,,,,1107.399999976158,,,,ua60hkvff,experiment_FR,,950067,124.0,blocks-exp,
334,731,346,33.0,28.0,,1.0,"[5, 5, 4, 7, 6, 6]","[7, 4, 3, 4, 2, 8]",12.25,,70.0,Pink to Blue,Green to Orange,,,,,558.5,,,,ua60hkvff,experiment_FR,,951630,125.0,blocks-exp,
335,732,347,24.0,35.0,,1.0,"[3, 2, 8, 3, 2, 6]","[7, 6, 2, 8, 7, 5]",12.25,,74.0,Pink to Blue,Green to Orange,,,,,598.6000000238419,,,,ua60hkvff,experiment_FR,,953235,126.0,blocks-exp,
336,733,348,20.0,25.0,,1.0,"[2, 1, 5, 1, 5, 6]","[5, 1, 8, 4, 3, 4]",12.25,,74.0,Pink to Blue,Green to Orange,,,,,578.5999999642372,,,,ua60hkvff,experiment_FR,,954818,127.0,blocks-exp,
337,734,349,21.0,32.0,,1.0,"[4, 5, 8, 1, 2, 1]","[6, 2, 8, 7, 6, 3]",12.25,,74.0,Pink to Blue,Green to Orange,,,,,660.8999999761581,,,,ua60hkvff,experiment_FR,,956482,128.0,blocks-exp,
338,735,350,23.0,24.0,,1.0,"[2, 5, 6, 6, 3, 1]","[5, 1, 4, 8, 2, 4]",12.25,,74.0,Pink to Blue,Green to Orange,,,,,587.6999999880791,,,,ua60hkvff,experiment_FR,,958089,129.0,blocks-exp,
339,736,351,22.0,17.0,,1.0,"[4, 5, 2, 1, 8, 2]","[2, 1, 7, 5, 1, 1]",12.25,,70.0,Pink to Blue,Green to Orange,,,,,986.399999976158,,,,ua60hkvff,experiment_FR,,960092,130.0,blocks-exp,
340,737,352,36.0,24.0,,1.0,"[8, 7, 8, 5, 5, 3]","[3, 8, 3, 1, 8, 1]",12.25,,70.0,Pink to Blue,Green to Orange,,,,,595.6000000238419,,,,ua60hkvff,experiment_FR,,961706,131.0,blocks-exp,
341,738,353,19.0,27.0,,1.0,"[1, 2, 6, 3, 4, 3]","[4, 5, 7, 7, 2, 2]",12.25,,74.0,Pink to Blue,Green to Orange,,,,,582.5,,,,ua60hkvff,experiment_FR,,963299,132.0,blocks-exp,
342,739,354,25.0,22.0,,1.0,"[1, 3, 6, 8, 5, 2]","[3, 4, 6, 5, 2, 2]",12.25,,70.0,Pink to Blue,Green to Orange,,,,,553.1000000238419,,,,ua60hkvff,experiment_FR,,964856,133.0,blocks-exp,
343,740,355,15.0,28.0,,1.0,"[5, 3, 1, 1, 3, 2]","[4, 3, 3, 6, 8, 4]",12.25,,74.0,Pink to Blue,Green to Orange,,,,,956.899999976158,,,,ua60hkvff,experiment_FR,,966816,134.0,blocks-exp,
344,741,356,26.0,26.0,,1.0,"[5, 2, 8, 4, 2, 5]","[2, 1, 8, 6, 4, 5]",12.25,,74.0,Pink to Blue,Green to Orange,,,,,506.1999999880791,,,,ua60hkvff,experiment_FR,,968326,135.0,blocks-exp,
345,742,357,28.0,26.0,,1.0,"[1, 4, 6, 2, 7, 8]","[6, 3, 8, 5, 1, 3]",12.25,,70.0,Pink to Blue,Green to Orange,,,,,546.2999999523163,,,,ua60hkvff,experiment_FR,,969876,136.0,blocks-exp,
346,743,358,15.0,22.0,,1.0,"[1, 3, 2, 7, 1, 1]","[1, 2, 8, 1, 4, 6]",12.25,,74.0,Pink to Blue,Green to Orange,,,,,677.3999999761581,,,,ua60hkvff,experiment_FR,,971557,137.0,blocks-exp,
347,744,359,23.0,20.0,,1.0,"[8, 1, 1, 2, 7, 4]","[2, 6, 4, 2, 2, 4]",12.25,,70.0,Pink to Blue,Green to Orange,,,,,757.3999999761581,,,,ua60hkvff,experiment_FR,,973319,138.0,blocks-exp,
348,745,360,27.0,26.0,,0.0,"[1, 6, 4, 8, 2, 6]","[8, 3, 7, 3, 3, 2]",12.25,,74.0,Pink to Blue,Green to Orange,,,,,1107.5999999642372,,,,ua60hkvff,experiment_FR,,975432,139.0,blocks-exp,
349,746,361,22.0,30.0,,1.0,"[4, 1, 4, 6, 6, 1]","[8, 4, 3, 4, 8, 3]",12.25,,74.0,Pink to Blue,Green to Orange,,,,,592.3000000119209,,,,ua60hkvff,experiment_FR,,977028,140.0,blocks-exp,
350,747,362,26.0,32.0,,1.0,"[1, 3, 8, 6, 2, 6]","[5, 7, 6, 8, 4, 2]",12.25,,74.0,Pink to Blue,Green to Orange,,,,,1130.899999976158,,,,ua60hkvff,experiment_FR,,979175,141.0,blocks-exp,
351,748,363,29.0,35.0,,0.0,"[8, 1, 7, 2, 8, 3]","[4, 4, 8, 5, 7, 7]",12.25,,70.0,Pink to Blue,Green to Orange,,,,,1049.5,,,,ua60hkvff,experiment_FR,,981229,142.0,blocks-exp,
352,749,364,29.0,30.0,,1.0,"[5, 2, 5, 7, 2, 8]","[3, 3, 4, 8, 4, 8]",12.25,,74.0,Pink to Blue,Green to Orange,,,,,916.6999999880792,,,,ua60hkvff,experiment_FR,,983149,143.0,blocks-exp,
353,750,365,22.0,35.0,,1.0,"[1, 7, 7, 5, 1, 1]","[8, 3, 2, 6, 8, 8]",12.25,,74.0,Pink to Blue,Green to Orange,,,,,474.1999999880791,,,,ua60hkvff,experiment_FR,,984629,144.0,blocks-exp,
354,751,366,29.0,28.0,,0.0,"[4, 4, 4, 8, 5, 4]","[7, 3, 8, 7, 2, 1]",12.25,,74.0,Pink to Blue,Green to Orange,,,,,604.4000000357628,,,,ua60hkvff,experiment_FR,,986240,145.0,blocks-exp,
355,752,367,29.0,25.0,,0.0,"[6, 4, 5, 5, 6, 3]","[4, 7, 3, 2, 7, 2]",12.25,,74.0,Pink to Blue,Green to Orange,,,,,770.5,,,,ua60hkvff,experiment_FR,,988015,146.0,blocks-exp,
356,753,368,25.0,18.0,,1.0,"[7, 5, 2, 5, 5, 1]","[1, 2, 2, 7, 1, 5]",12.25,,70.0,Pink to Blue,Green to Orange,,,,,995.1999999880792,,,,ua60hkvff,experiment_FR,,990016,147.0,blocks-exp,
357,754,369,33.0,27.0,,1.0,"[4, 6, 2, 8, 8, 5]","[6, 5, 2, 7, 2, 5]",12.25,,70.0,Pink to Blue,Green to Orange,,,,,582.3000000119209,,,,ua60hkvff,experiment_FR,,991602,148.0,blocks-exp,
358,755,370,27.0,21.0,,1.0,"[3, 2, 5, 7, 8, 2]","[1, 6, 2, 4, 7, 1]",12.25,,70.0,Pink to Blue,Green to Orange,,,,,545.1000000238419,,,,ua60hkvff,experiment_FR,,993155,149.0,blocks-exp,
359,756,371,29.0,31.0,,1.0,"[6, 5, 8, 4, 3, 3]","[7, 3, 4, 3, 6, 8]",12.25,,74.0,Pink to Blue,Green to Orange,,,,,709.3000000119209,,,,ua60hkvff,experiment_FR,,994870,150.0,blocks-exp,
360,962,192,24.0,22.0,,1.0,"[6, 1, 2, 7, 5, 3]","[1, 4, 2, 6, 5, 4]",11.5,,70.0,Green to Orange,Blue to Pink,,,,,2394.099999964237,,,,o2ql6etsj,training_FR,,809387,1.0,blocks,
361,963,193,25.0,27.0,,1.0,"[4, 5, 3, 2, 8, 3]","[6, 5, 5, 8, 1, 2]",11.5,,74.0,Green to Orange,Blue to Pink,,,,,1832.5,,,,o2ql6etsj,training_FR,,813224,2.0,blocks,
362,964,194,21.0,32.0,,1.0,"[6, 3, 5, 5, 1, 1]","[8, 4, 5, 5, 8, 2]",11.5,,74.0,Green to Orange,Blue to Pink,,,,,1478.5,,,,o2ql6etsj,training_FR,,816708,3.0,blocks,
363,965,195,17.0,27.0,,1.0,"[1, 6, 1, 1, 5, 3]","[6, 1, 6, 2, 6, 6]",11.5,,74.0,Green to Orange,Blue to Pink,,,,,1181.0,,,,o2ql6etsj,training_FR,,819895,4.0,blocks,
364,966,196,19.0,18.0,,1.0,"[6, 4, 1, 4, 2, 2]","[4, 1, 4, 2, 5, 2]",11.5,,70.0,Green to Orange,Blue to Pink,,,,,2530.199999988079,,,,o2ql6etsj,training_FR,,824432,5.0,blocks,
365,967,197,19.0,20.0,,0.0,"[4, 2, 6, 4, 2, 1]","[2, 2, 3, 4, 2, 7]",11.5,,70.0,Green to Orange,Blue to Pink,,,,,3086.5,,,,o2ql6etsj,training_FR,,829525,6.0,blocks,
366,968,198,31.0,16.0,,1.0,"[2, 6, 6, 5, 4, 8]","[1, 2, 4, 1, 3, 5]",11.5,,70.0,Green to Orange,Blue to Pink,,,,,1155.699999988079,,,,o2ql6etsj,training_FR,,832687,7.0,blocks,
367,969,199,31.0,25.0,,1.0,"[7, 8, 7, 1, 5, 3]","[2, 2, 6, 6, 6, 3]",11.5,,70.0,Green to Orange,Blue to Pink,,,,,1102.800000011921,,,,o2ql6etsj,training_FR,,835795,8.0,blocks,
368,970,200,18.0,22.0,,1.0,"[1, 4, 1, 5, 3, 4]","[3, 5, 3, 5, 5, 1]",11.5,,74.0,Green to Orange,Blue to Pink,,,,,1182.4000000357628,,,,o2ql6etsj,training_FR,,838983,9.0,blocks,
369,971,201,29.0,23.0,,1.0,"[4, 4, 3, 7, 7, 4]","[3, 3, 6, 1, 3, 7]",11.5,,70.0,Green to Orange,Blue to Pink,,,,,1412.699999988079,,,,o2ql6etsj,training_FR,,842401,10.0,blocks,
370,972,202,26.0,23.0,,1.0,"[2, 5, 4, 7, 6, 2]","[7, 3, 4, 3, 4, 2]",11.5,,70.0,Green to Orange,Blue to Pink,,,,,1076.199999988079,,,,o2ql6etsj,training_FR,,845489,11.0,blocks,
371,973,203,14.0,28.0,,1.0,"[2, 1, 2, 5, 1, 3]","[3, 8, 6, 3, 7, 1]",11.5,,74.0,Green to Orange,Blue to Pink,,,,,798.4000000357628,,,,o2ql6etsj,training_FR,,848293,12.0,blocks,
372,974,204,23.0,33.0,,1.0,"[6, 7, 2, 4, 3, 1]","[2, 5, 6, 8, 7, 5]",11.5,,74.0,Green to Orange,Blue to Pink,,,,,767.8999999761581,,,,o2ql6etsj,training_FR,,851067,13.0,blocks,
373,975,205,32.0,24.0,,1.0,"[6, 8, 3, 5, 2, 8]","[1, 3, 6, 7, 2, 5]",11.5,,70.0,Green to Orange,Blue to Pink,,,,,960.2999999523164,,,,o2ql6etsj,training_FR,,854032,14.0,blocks,
374,976,206,30.0,37.0,,1.0,"[1, 6, 8, 5, 4, 6]","[4, 8, 8, 4, 7, 6]",11.5,,74.0,Green to Orange,Blue to Pink,,,,,1562.0,,,,o2ql6etsj,training_FR,,857599,15.0,blocks,
375,977,207,17.0,24.0,,1.0,"[3, 1, 1, 4, 4, 4]","[3, 3, 7, 5, 5, 1]",11.5,,74.0,Green to Orange,Blue to Pink,,,,,943.399999976158,,,,o2ql6etsj,training_FR,,860548,16.0,blocks,
376,978,208,42.0,34.0,,1.0,"[6, 7, 8, 5, 8, 8]","[8, 7, 7, 3, 3, 6]",11.5,,70.0,Green to Orange,Blue to Pink,,,,,726.1999999880791,,,,o2ql6etsj,training_FR,,863279,17.0,blocks,
377,979,209,27.0,25.0,,1.0,"[3, 5, 5, 5, 6, 3]","[7, 1, 3, 5, 1, 8]",11.5,,70.0,Green to Orange,Blue to Pink,,,,,1341.300000011921,,,,o2ql6etsj,training_FR,,866625,18.0,blocks,
378,980,210,18.0,27.0,,1.0,"[5, 4, 3, 1, 4, 1]","[4, 2, 8, 4, 4, 5]",11.5,,74.0,Green to Orange,Blue to Pink,,,,,719.5,,,,o2ql6etsj,training_FR,,869350,19.0,blocks,
379,981,211,21.0,26.0,,1.0,"[2, 2, 2, 6, 8, 1]","[2, 1, 7, 8, 7, 1]",11.5,,74.0,Green to Orange,Blue to Pink,,,,,1349.0,,,,o2ql6etsj,training_FR,,872704,20.0,blocks,
380,982,212,30.0,29.0,,1.0,"[2, 5, 5, 5, 7, 6]","[7, 3, 8, 3, 2, 6]",11.5,,70.0,Green to Orange,Blue to Pink,,,,,929.0,,,,o2ql6etsj,training_FR,,875638,21.0,blocks,
381,983,213,28.0,24.0,,1.0,"[8, 3, 3, 5, 2, 7]","[5, 3, 1, 3, 8, 4]",11.5,,70.0,Green to Orange,Blue to Pink,,,,,1013.399999976158,,,,o2ql6etsj,training_FR,,878657,22.0,blocks,
382,984,214,19.0,30.0,,1.0,"[5, 3, 1, 6, 2, 2]","[3, 8, 4, 3, 8, 4]",11.5,,74.0,Green to Orange,Blue to Pink,,,,,732.3999999761581,,,,o2ql6etsj,training_FR,,881394,23.0,blocks,
383,985,215,34.0,28.0,,1.0,"[7, 5, 2, 6, 8, 6]","[2, 7, 7, 6, 2, 4]",11.5,,70.0,Green to Orange,Blue to Pink,,,,,893.3000000119209,,,,o2ql6etsj,training_FR,,884294,24.0,blocks,
384,986,216,28.0,33.0,,1.0,"[6, 7, 2, 1, 7, 5]","[1, 8, 7, 5, 5, 7]",11.5,,74.0,Green to Orange,Blue to Pink,,,,,1017.3000000119208,,,,o2ql6etsj,training_FR,,887328,25.0,blocks,
385,987,217,34.0,24.0,,1.0,"[8, 7, 5, 1, 8, 5]","[3, 3, 1, 4, 6, 7]",11.5,,70.0,Green to Orange,Blue to Pink,,,,,600.5,,,,o2ql6etsj,training_FR,,889936,26.0,blocks,
386,988,218,25.0,27.0,,0.0,"[2, 6, 6, 2, 7, 2]","[5, 3, 6, 8, 4, 1]",11.5,,70.0,Green to Orange,Blue to Pink,,,,,920.2000000476836,,,,o2ql6etsj,training_FR,,892861,27.0,blocks,
387,989,219,23.0,21.0,,1.0,"[1, 7, 2, 3, 7, 3]","[2, 6, 2, 3, 5, 3]",11.5,,70.0,Green to Orange,Blue to Pink,,,,,1116.899999976158,,,,o2ql6etsj,training_FR,,895982,28.0,blocks,
388,990,220,43.0,35.0,,1.0,"[6, 8, 7, 7, 8, 7]","[4, 4, 8, 8, 6, 5]",11.5,,70.0,Green to Orange,Blue to Pink,,,,,631.6999999880791,,,,o2ql6etsj,training_FR,,898630,29.0,blocks,
389,991,221,28.0,30.0,,1.0,"[4, 8, 1, 5, 6, 4]","[7, 6, 4, 5, 5, 3]",11.5,,74.0,Green to Orange,Blue to Pink,,,,,1167.300000011921,,,,o2ql6etsj,training_FR,,901803,30.0,blocks,
390,992,222,21.0,32.0,,1.0,"[2, 1, 3, 8, 6, 1]","[6, 6, 7, 6, 3, 4]",11.5,,74.0,Green to Orange,Blue to Pink,,,,,1191.4000000357628,,,,o2ql6etsj,experiment_FR,,959617,1.0,blocks-exp,
391,993,223,27.0,29.0,,1.0,"[6, 6, 3, 6, 2, 4]","[7, 6, 5, 2, 6, 3]",11.5,,74.0,Green to Orange,Blue to Pink,,,,,3468.599999964237,,,,o2ql6etsj,experiment_FR,,964090,2.0,blocks-exp,
392,994,224,24.0,28.0,,1.0,"[2, 4, 3, 8, 3, 4]","[8, 1, 5, 3, 8, 3]",11.5,,74.0,Green to Orange,Blue to Pink,,,,,5977.800000011921,,,,o2ql6etsj,experiment_FR,,971072,3.0,blocks-exp,
393,995,225,26.0,25.0,,0.0,"[2, 6, 6, 6, 2, 4]","[1, 8, 2, 1, 6, 7]",11.5,,74.0,Green to Orange,Blue to Pink,,,,,3348.699999988079,,,,o2ql6etsj,experiment_FR,,975424,4.0,blocks-exp,
394,996,226,26.0,23.0,,1.0,"[6, 4, 7, 3, 1, 5]","[1, 2, 8, 6, 1, 5]",11.5,,70.0,Green to Orange,Blue to Pink,,,,,1721.399999976158,,,,o2ql6etsj,experiment_FR,,978151,5.0,blocks-exp,
395,997,227,29.0,22.0,,1.0,"[5, 3, 6, 2, 8, 5]","[4, 6, 2, 3, 5, 2]",11.5,,70.0,Green to Orange,Blue to Pink,,,,,1011.5,,,,o2ql6etsj,experiment_FR,,980167,6.0,blocks-exp,
396,998,228,35.0,30.0,,1.0,"[7, 8, 4, 5, 3, 8]","[7, 1, 6, 8, 6, 2]",11.5,,70.0,Green to Orange,Blue to Pink,,,,,1905.199999988079,,,,o2ql6etsj,experiment_FR,,983078,7.0,blocks-exp,
397,999,229,30.0,33.0,,1.0,"[3, 1, 6, 5, 8, 7]","[5, 7, 4, 8, 3, 6]",11.5,,74.0,Green to Orange,Blue to Pink,,,,,949.899999976158,,,,o2ql6etsj,experiment_FR,,985034,8.0,blocks-exp,
398,1000,230,33.0,29.0,,1.0,"[7, 7, 7, 2, 5, 5]","[7, 7, 4, 5, 4, 2]",11.5,,70.0,Green to Orange,Blue to Pink,,,,,2884.800000011921,,,,o2ql6etsj,experiment_FR,,988922,9.0,blocks-exp,
399,1001,231,30.0,35.0,,1.0,"[8, 7, 3, 5, 1, 6]","[6, 7, 8, 3, 8, 3]",11.5,,74.0,Green to Orange,Blue to Pink,,,,,2106.600000023842,,,,o2ql6etsj,experiment_FR,,992034,10.0,blocks-exp,
400,1002,232,20.0,25.0,,1.0,"[1, 1, 7, 5, 4, 2]","[3, 8, 6, 2, 3, 3]",11.5,,74.0,Green to Orange,Blue to Pink,,,,,2901.300000011921,,,,o2ql6etsj,experiment_FR,,995940,11.0,blocks-exp,
401,1003,233,29.0,23.0,,1.0,"[4, 2, 7, 7, 1, 8]","[4, 1, 6, 8, 3, 1]",11.5,,70.0,Green to Orange,Blue to Pink,,,,,1137.100000023842,,,,o2ql6etsj,experiment_FR,,998082,12.0,blocks-exp,
402,1004,234,25.0,18.0,,1.0,"[1, 4, 3, 3, 6, 8]","[2, 3, 4, 2, 5, 2]",11.5,,70.0,Green to Orange,Blue to Pink,,,,,3205.699999988079,,,,o2ql6etsj,experiment_FR,,1002292,13.0,blocks-exp,
403,1005,235,25.0,31.0,,1.0,"[2, 1, 6, 8, 4, 4]","[2, 6, 3, 7, 5, 8]",11.5,,74.0,Green to Orange,Blue to Pink,,,,,2201.400000035763,,,,o2ql6etsj,experiment_FR,,1005498,14.0,blocks-exp,
404,1006,236,28.0,20.0,,1.0,"[4, 6, 3, 2, 7, 6]","[4, 7, 3, 3, 2, 1]",11.5,,70.0,Green to Orange,Blue to Pink,,,,,2468.100000023842,,,,o2ql6etsj,experiment_FR,,1008971,15.0,blocks-exp,
405,1007,237,38.0,31.0,,1.0,"[7, 8, 6, 3, 7, 7]","[7, 8, 1, 5, 6, 4]",11.5,,70.0,Green to Orange,Blue to Pink,,,,,1806.199999988079,,,,o2ql6etsj,experiment_FR,,1011781,16.0,blocks-exp,
406,1008,238,21.0,24.0,,1.0,"[2, 8, 3, 5, 1, 2]","[6, 5, 4, 4, 4, 1]",11.5,,74.0,Green to Orange,Blue to Pink,,,,,4316.099999964237,,,,o2ql6etsj,experiment_FR,,1017101,17.0,blocks-exp,
407,1009,239,28.0,28.0,,0.0,"[1, 6, 3, 5, 8, 5]","[5, 8, 5, 3, 6, 1]",11.5,,74.0,Green to Orange,Blue to Pink,,,,,8251.300000011921,,,,o2ql6etsj,experiment_FR,,1026357,18.0,blocks-exp,
408,1010,240,30.0,25.0,,1.0,"[2, 4, 5, 6, 7, 6]","[2, 4, 7, 5, 4, 3]",11.5,,70.0,Green to Orange,Blue to Pink,,,,,1453.699999988079,,,,o2ql6etsj,experiment_FR,,1028817,19.0,blocks-exp,
409,1011,241,20.0,14.0,,1.0,"[8, 4, 1, 2, 2, 3]","[1, 1, 3, 2, 4, 3]",11.5,,70.0,Green to Orange,Blue to Pink,,,,,2318.0,,,,o2ql6etsj,experiment_FR,,1032139,20.0,blocks-exp,
410,1012,242,28.0,26.0,,1.0,"[6, 5, 1, 4, 8, 4]","[3, 7, 6, 3, 2, 5]",11.5,,70.0,Green to Orange,Blue to Pink,,,,,1657.699999988079,,,,o2ql6etsj,experiment_FR,,1034801,21.0,blocks-exp,
411,1013,243,27.0,26.0,,0.0,"[3, 6, 4, 7, 2, 5]","[4, 5, 2, 3, 4, 8]",11.5,,74.0,Green to Orange,Blue to Pink,,,,,4950.5,,,,o2ql6etsj,experiment_FR,,1040756,22.0,blocks-exp,
412,1014,244,18.0,13.0,,1.0,"[3, 3, 2, 3, 3, 4]","[1, 1, 2, 1, 6, 2]",11.5,,70.0,Green to Orange,Blue to Pink,,,,,6027.399999976158,,,,o2ql6etsj,experiment_FR,,1047792,23.0,blocks-exp,
413,1015,245,24.0,30.0,,1.0,"[7, 3, 4, 2, 2, 6]","[5, 3, 6, 6, 7, 3]",11.5,,74.0,Green to Orange,Blue to Pink,,,,,1358.300000011921,,,,o2ql6etsj,experiment_FR,,1050156,24.0,blocks-exp,
414,1016,246,19.0,28.0,,1.0,"[1, 4, 2, 5, 2, 5]","[3, 3, 8, 6, 5, 3]",11.5,,74.0,Green to Orange,Blue to Pink,,,,,1697.5,,,,o2ql6etsj,experiment_FR,,1052858,25.0,blocks-exp,
415,1017,247,27.0,23.0,,1.0,"[6, 2, 2, 4, 5, 8]","[4, 4, 7, 1, 1, 6]",11.5,,70.0,Green to Orange,Blue to Pink,,,,,4442.800000011921,,,,o2ql6etsj,experiment_FR,,1058306,26.0,blocks-exp,
416,1018,248,26.0,29.0,,1.0,"[8, 3, 3, 2, 2, 8]","[8, 4, 1, 7, 4, 5]",11.5,,74.0,Green to Orange,Blue to Pink,,,,,1924.6000000238416,,,,o2ql6etsj,experiment_FR,,1061235,27.0,blocks-exp,
417,1019,249,35.0,29.0,,1.0,"[7, 4, 8, 6, 6, 4]","[4, 3, 4, 4, 8, 6]",11.5,,70.0,Green to Orange,Blue to Pink,,,,,1035.5,,,,o2ql6etsj,experiment_FR,,1063275,28.0,blocks-exp,
418,1020,250,35.0,22.0,,1.0,"[7, 4, 7, 8, 7, 2]","[8, 2, 1, 7, 2, 2]",11.5,,70.0,Green to Orange,Blue to Pink,,,,,991.8000000119208,,,,o2ql6etsj,experiment_FR,,1065270,29.0,blocks-exp,
419,1021,251,33.0,33.0,,1.0,"[8, 1, 8, 6, 5, 5]","[4, 6, 3, 7, 7, 6]",11.5,,74.0,Green to Orange,Blue to Pink,,,,,1294.600000023842,,,,o2ql6etsj,experiment_FR,,1067570,30.0,blocks-exp,
420,1022,252,32.0,24.0,,1.0,"[3, 4, 8, 4, 5, 8]","[6, 1, 2, 7, 2, 6]",11.5,,70.0,Green to Orange,Blue to Pink,,,,,2223.0,,,,o2ql6etsj,experiment_FR,,1070797,31.0,blocks-exp,
421,1023,253,19.0,23.0,,1.0,"[1, 3, 2, 3, 7, 3]","[6, 8, 4, 1, 2, 2]",11.5,,74.0,Green to Orange,Blue to Pink,,,,,4497.699999988079,,,,o2ql6etsj,experiment_FR,,1076299,32.0,blocks-exp,
422,1024,254,16.0,24.0,,1.0,"[2, 5, 1, 5, 1, 2]","[1, 3, 1, 6, 7, 6]",11.5,,74.0,Green to Orange,Blue to Pink,,,,,5462.300000011921,,,,o2ql6etsj,experiment_FR,,1082768,33.0,blocks-exp,
423,1025,255,31.0,36.0,,1.0,"[3, 8, 4, 6, 7, 3]","[8, 8, 7, 5, 6, 2]",11.5,,74.0,Green to Orange,Blue to Pink,,,,,1409.399999976158,,,,o2ql6etsj,experiment_FR,,1085182,34.0,blocks-exp,
424,1026,256,20.0,17.0,,1.0,"[6, 3, 2, 4, 2, 3]","[2, 1, 4, 2, 7, 1]",11.5,,70.0,Green to Orange,Blue to Pink,,,,,1481.0,,,,o2ql6etsj,experiment_FR,,1087673,35.0,blocks-exp,
425,1027,257,21.0,32.0,,1.0,"[4, 1, 2, 3, 8, 3]","[6, 8, 2, 4, 7, 5]",11.5,,74.0,Green to Orange,Blue to Pink,,,,,789.5999999642372,,,,o2ql6etsj,experiment_FR,,1089466,36.0,blocks-exp,
426,1028,258,25.0,27.0,,0.0,"[2, 2, 3, 6, 8, 4]","[1, 4, 7, 7, 4, 4]",11.5,,70.0,Green to Orange,Blue to Pink,,,,,29270.69999998808,,,,o2ql6etsj,experiment_FR,,1119741,37.0,blocks-exp,
427,1029,259,30.0,25.0,,1.0,"[2, 4, 5, 8, 3, 8]","[5, 8, 2, 4, 3, 3]",11.5,,70.0,Green to Orange,Blue to Pink,,,,,1275.5,,,,o2ql6etsj,experiment_FR,,1122022,38.0,blocks-exp,
428,1030,260,26.0,26.0,,0.0,"[7, 7, 1, 4, 2, 5]","[3, 8, 3, 8, 1, 3]",11.5,,70.0,Green to Orange,Blue to Pink,,,,,3995.5,,,,o2ql6etsj,experiment_FR,,1127022,39.0,blocks-exp,
429,1031,261,17.0,23.0,,1.0,"[3, 3, 1, 3, 2, 5]","[1, 4, 6, 8, 3, 1]",11.5,,74.0,Green to Orange,Blue to Pink,,,,,1484.699999988079,,,,o2ql6etsj,experiment_FR,,1129512,40.0,blocks-exp,
430,1032,262,18.0,19.0,,1.0,"[1, 1, 7, 1, 6, 2]","[2, 1, 8, 1, 1, 6]",11.5,,74.0,Green to Orange,Blue to Pink,,,,,3822.899999976158,,,,o2ql6etsj,experiment_FR,,1134339,41.0,blocks-exp,
431,1033,263,18.0,25.0,,1.0,"[1, 8, 6, 1, 1, 1]","[5, 1, 4, 4, 8, 3]",11.5,,74.0,Green to Orange,Blue to Pink,,,,,961.7999999523164,,,,o2ql6etsj,experiment_FR,,1136305,42.0,blocks-exp,
432,1034,264,19.0,27.0,,1.0,"[2, 1, 1, 4, 3, 8]","[4, 4, 1, 5, 6, 7]",11.5,,74.0,Green to Orange,Blue to Pink,,,,,806.0,,,,o2ql6etsj,experiment_FR,,1138114,43.0,blocks-exp,
433,1035,265,29.0,23.0,,1.0,"[8, 6, 6, 1, 6, 2]","[1, 4, 4, 4, 4, 6]",11.5,,70.0,Green to Orange,Blue to Pink,,,,,764.6999999880791,,,,o2ql6etsj,experiment_FR,,1139882,44.0,blocks-exp,
434,1036,266,21.0,34.0,,1.0,"[5, 3, 5, 3, 4, 1]","[6, 8, 5, 6, 2, 7]",11.5,,74.0,Green to Orange,Blue to Pink,,,,,683.9000000357628,,,,o2ql6etsj,experiment_FR,,1141571,45.0,blocks-exp,
435,1037,267,22.0,26.0,,1.0,"[3, 1, 5, 3, 3, 7]","[3, 4, 3, 4, 8, 4]",11.5,,74.0,Green to Orange,Blue to Pink,,,,,1447.0999999642372,,,,o2ql6etsj,experiment_FR,,1144024,46.0,blocks-exp,
436,1038,268,33.0,30.0,,1.0,"[8, 7, 4, 4, 2, 8]","[6, 7, 6, 1, 4, 6]",11.5,,70.0,Green to Orange,Blue to Pink,,,,,1957.4000000357628,,,,o2ql6etsj,experiment_FR,,1146986,47.0,blocks-exp,
437,1039,269,16.0,29.0,,1.0,"[1, 1, 1, 4, 6, 3]","[6, 7, 5, 3, 2, 6]",11.5,,74.0,Green to Orange,Blue to Pink,,,,,812.4000000357628,,,,o2ql6etsj,experiment_FR,,1148803,48.0,blocks-exp,
438,1040,270,21.0,30.0,,1.0,"[3, 8, 1, 4, 1, 4]","[2, 8, 5, 7, 1, 7]",11.5,,74.0,Green to Orange,Blue to Pink,,,,,1675.0,,,,o2ql6etsj,experiment_FR,,1151483,49.0,blocks-exp,
439,1041,271,25.0,22.0,,1.0,"[8, 3, 4, 3, 4, 3]","[8, 1, 8, 1, 2, 2]",11.5,,70.0,Green to Orange,Blue to Pink,,,,,2085.300000011921,,,,o2ql6etsj,experiment_FR,,1154573,50.0,blocks-exp,
440,1042,272,28.0,31.0,,1.0,"[1, 1, 5, 6, 8, 7]","[8, 4, 5, 5, 8, 1]",11.5,,74.0,Green to Orange,Blue to Pink,,,,,1631.7999999523165,,,,o2ql6etsj,experiment_FR,,1157209,51.0,blocks-exp,
441,1043,273,27.0,38.0,,1.0,"[6, 3, 3, 6, 7, 2]","[7, 7, 5, 8, 3, 8]",11.5,,74.0,Green to Orange,Blue to Pink,,,,,1422.2000000476835,,,,o2ql6etsj,experiment_FR,,1159637,52.0,blocks-exp,
442,1044,274,29.0,28.0,,1.0,"[4, 7, 7, 5, 3, 3]","[6, 2, 6, 6, 6, 2]",11.5,,70.0,Green to Orange,Blue to Pink,,,,,1667.7000000476835,,,,o2ql6etsj,experiment_FR,,1162309,53.0,blocks-exp,
443,1045,275,27.0,35.0,,1.0,"[4, 2, 5, 5, 8, 3]","[6, 2, 8, 7, 5, 7]",11.5,,74.0,Green to Orange,Blue to Pink,,,,,1461.600000023842,,,,o2ql6etsj,experiment_FR,,1164775,54.0,blocks-exp,
444,1046,276,27.0,27.0,,0.0,"[6, 5, 3, 4, 6, 3]","[6, 8, 4, 4, 3, 2]",11.5,,70.0,Green to Orange,Blue to Pink,,,,,1927.6000000238416,,,,o2ql6etsj,experiment_FR,,1167706,55.0,blocks-exp,
445,1047,277,33.0,27.0,,1.0,"[7, 5, 6, 5, 7, 3]","[1, 8, 8, 3, 4, 3]",11.5,,70.0,Green to Orange,Blue to Pink,,,,,933.8000000119208,,,,o2ql6etsj,experiment_FR,,1169644,56.0,blocks-exp,
446,1048,278,26.0,34.0,,1.0,"[4, 6, 1, 6, 8, 1]","[5, 5, 5, 8, 4, 7]",11.5,,74.0,Green to Orange,Blue to Pink,,,,,809.1000000238419,,,,o2ql6etsj,experiment_FR,,1171458,57.0,blocks-exp,
447,1049,279,22.0,34.0,,1.0,"[1, 6, 5, 6, 3, 1]","[4, 7, 3, 8, 7, 5]",11.5,,74.0,Green to Orange,Blue to Pink,,,,,645.3999999761581,,,,o2ql6etsj,experiment_FR,,1173108,58.0,blocks-exp,
448,1050,280,20.0,19.0,,1.0,"[5, 4, 4, 4, 1, 2]","[2, 6, 1, 3, 2, 5]",11.5,,70.0,Green to Orange,Blue to Pink,,,,,3035.899999976158,,,,o2ql6etsj,experiment_FR,,1177149,59.0,blocks-exp,
449,1051,281,25.0,20.0,,1.0,"[8, 3, 1, 7, 2, 4]","[2, 6, 2, 1, 6, 3]",11.5,,70.0,Green to Orange,Blue to Pink,,,,,1149.0,,,,o2ql6etsj,experiment_FR,,1179303,60.0,blocks-exp,
450,1052,282,30.0,22.0,,1.0,"[7, 2, 5, 3, 8, 5]","[6, 5, 3, 3, 3, 2]",11.5,,70.0,Green to Orange,Blue to Pink,,,,,831.1999999880791,,,,o2ql6etsj,experiment_FR,,1181142,61.0,blocks-exp,
451,1053,283,25.0,25.0,,0.0,"[8, 4, 1, 2, 4, 6]","[2, 4, 5, 2, 6, 6]",11.5,,74.0,Green to Orange,Blue to Pink,,,,,1428.5,,,,o2ql6etsj,experiment_FR,,1183573,62.0,blocks-exp,
452,1054,284,33.0,18.0,,1.0,"[5, 7, 2, 6, 5, 8]","[1, 7, 1, 5, 3, 1]",11.5,,70.0,Green to Orange,Blue to Pink,,,,,718.1999999880791,,,,o2ql6etsj,experiment_FR,,1185297,63.0,blocks-exp,
453,1055,285,27.0,34.0,,1.0,"[3, 5, 3, 7, 4, 5]","[4, 8, 6, 4, 7, 5]",11.5,,74.0,Green to Orange,Blue to Pink,,,,,588.1000000238419,,,,o2ql6etsj,experiment_FR,,1186889,64.0,blocks-exp,
454,1056,286,33.0,28.0,,1.0,"[4, 8, 2, 7, 5, 7]","[5, 3, 8, 3, 7, 2]",11.5,,70.0,Green to Orange,Blue to Pink,,,,,2919.5,,,,o2ql6etsj,experiment_FR,,1190821,65.0,blocks-exp,
455,1057,287,23.0,26.0,,0.0,"[7, 6, 5, 1, 1, 3]","[5, 7, 2, 2, 2, 8]",11.5,,70.0,Green to Orange,Blue to Pink,,,,,1690.800000011921,,,,o2ql6etsj,experiment_FR,,1193516,66.0,blocks-exp,
456,1058,288,12.0,27.0,,1.0,"[2, 2, 3, 3, 1, 1]","[1, 3, 5, 7, 5, 6]",11.5,,74.0,Green to Orange,Blue to Pink,,,,,582.8000000119209,,,,o2ql6etsj,experiment_FR,,1195104,67.0,blocks-exp,
457,1059,289,16.0,17.0,,0.0,"[1, 1, 5, 1, 6, 2]","[3, 1, 4, 1, 2, 6]",11.5,,70.0,Green to Orange,Blue to Pink,,,,,1740.0,,,,o2ql6etsj,experiment_FR,,1197848,68.0,blocks-exp,
458,1060,290,32.0,29.0,,1.0,"[8, 7, 5, 6, 5, 1]","[2, 5, 7, 7, 4, 4]",11.5,,70.0,Green to Orange,Blue to Pink,,,,,530.6999999880791,,,,o2ql6etsj,experiment_FR,,1199384,69.0,blocks-exp,
459,1061,291,28.0,32.0,,1.0,"[8, 2, 4, 4, 3, 7]","[4, 8, 2, 8, 2, 8]",11.5,,74.0,Green to Orange,Blue to Pink,,,,,3106.2999999523163,,,,o2ql6etsj,experiment_FR,,1203503,70.0,blocks-exp,
460,1062,292,31.0,25.0,,1.0,"[4, 6, 4, 7, 7, 3]","[7, 5, 3, 4, 3, 3]",11.5,,70.0,Green to Orange,Blue to Pink,,,,,1111.300000011921,,,,o2ql6etsj,experiment_FR,,1205619,71.0,blocks-exp,
461,1063,293,26.0,24.0,,1.0,"[2, 8, 4, 2, 4, 6]","[5, 1, 1, 5, 5, 7]",11.5,,70.0,Green to Orange,Blue to Pink,,,,,12131.100000023842,,,,o2ql6etsj,experiment_FR,,1218755,72.0,blocks-exp,
462,1064,294,34.0,17.0,,1.0,"[7, 4, 2, 5, 8, 8]","[4, 1, 6, 1, 4, 1]",11.5,,70.0,Green to Orange,Blue to Pink,,,,,787.7000000476837,,,,o2ql6etsj,experiment_FR,,1220547,73.0,blocks-exp,
463,1065,295,32.0,27.0,,1.0,"[7, 3, 8, 5, 1, 8]","[3, 5, 8, 2, 8, 1]",11.5,,70.0,Green to Orange,Blue to Pink,,,,,2436.200000047684,,,,o2ql6etsj,experiment_FR,,1223989,74.0,blocks-exp,
464,1066,296,42.0,33.0,,1.0,"[7, 7, 8, 7, 5, 8]","[7, 1, 6, 7, 8, 4]",11.5,,70.0,Green to Orange,Blue to Pink,,,,,805.8999999761581,,,,o2ql6etsj,experiment_FR,,1225799,75.0,blocks-exp,
465,1067,297,31.0,18.0,,1.0,"[5, 4, 8, 6, 5, 3]","[1, 8, 1, 4, 1, 3]",11.5,,70.0,Green to Orange,Blue to Pink,,,,,840.5,,,,o2ql6etsj,experiment_FR,,1227644,76.0,blocks-exp,
466,1068,298,24.0,35.0,,1.0,"[7, 2, 6, 2, 2, 5]","[8, 6, 7, 1, 8, 5]",11.5,,74.0,Green to Orange,Blue to Pink,,,,,761.0,,,,o2ql6etsj,experiment_FR,,1229416,77.0,blocks-exp,
467,1069,299,21.0,22.0,,1.0,"[1, 4, 1, 7, 1, 7]","[5, 1, 5, 1, 7, 3]",11.5,,74.0,Green to Orange,Blue to Pink,,,,,2747.899999976158,,,,o2ql6etsj,experiment_FR,,1233168,78.0,blocks-exp,
468,1070,300,21.0,29.0,,1.0,"[1, 3, 6, 4, 4, 3]","[7, 1, 3, 4, 6, 8]",11.5,,74.0,Green to Orange,Blue to Pink,,,,,1254.199999988079,,,,o2ql6etsj,experiment_FR,,1235429,79.0,blocks-exp,
469,1071,301,41.0,19.0,,1.0,"[8, 6, 6, 6, 8, 7]","[2, 1, 5, 2, 4, 5]",11.5,,70.0,Green to Orange,Blue to Pink,,,,,584.1999999880791,,,,o2ql6etsj,experiment_FR,,1237017,80.0,blocks-exp,
470,1072,302,39.0,23.0,,1.0,"[8, 6, 3, 6, 8, 8]","[1, 3, 4, 2, 8, 5]",11.5,,70.0,Green to Orange,Blue to Pink,,,,,562.5,,,,o2ql6etsj,experiment_FR,,1238583,81.0,blocks-exp,
471,1073,303,30.0,26.0,,1.0,"[5, 3, 6, 1, 8, 7]","[7, 1, 1, 6, 8, 3]",11.5,,70.0,Green to Orange,Blue to Pink,,,,,2849.699999988079,,,,o2ql6etsj,experiment_FR,,1242439,82.0,blocks-exp,
472,1074,304,23.0,26.0,,1.0,"[1, 4, 4, 3, 5, 6]","[3, 5, 3, 5, 3, 7]",11.5,,74.0,Green to Orange,Blue to Pink,,,,,1303.300000011921,,,,o2ql6etsj,experiment_FR,,1244747,83.0,blocks-exp,
473,1075,305,26.0,27.0,,1.0,"[5, 3, 6, 1, 7, 4]","[5, 6, 3, 4, 5, 4]",11.5,,74.0,Green to Orange,Blue to Pink,,,,,1578.300000011921,,,,o2ql6etsj,experiment_FR,,1247331,84.0,blocks-exp,
474,1076,306,24.0,20.0,,1.0,"[2, 2, 1, 7, 4, 8]","[1, 3, 1, 7, 7, 1]",11.5,,70.0,Green to Orange,Blue to Pink,,,,,41340.30000001192,,,,o2ql6etsj,experiment_FR,,1289676,85.0,blocks-exp,
475,1077,307,19.0,26.0,,1.0,"[2, 5, 6, 1, 1, 4]","[2, 4, 3, 6, 8, 3]",11.5,,74.0,Green to Orange,Blue to Pink,,,,,807.1000000238419,,,,o2ql6etsj,experiment_FR,,1291488,86.0,blocks-exp,
476,1078,308,31.0,22.0,,1.0,"[7, 4, 4, 5, 3, 8]","[2, 1, 8, 5, 2, 4]",11.5,,70.0,Green to Orange,Blue to Pink,,,,,982.0,,,,o2ql6etsj,experiment_FR,,1293475,87.0,blocks-exp,
477,1079,309,25.0,33.0,,1.0,"[2, 1, 6, 1, 8, 7]","[6, 2, 6, 8, 5, 6]",11.5,,74.0,Green to Orange,Blue to Pink,,,,,1223.5,,,,o2ql6etsj,experiment_FR,,1295704,88.0,blocks-exp,
478,1080,310,38.0,30.0,,1.0,"[4, 6, 8, 8, 7, 5]","[6, 2, 4, 8, 3, 7]",11.5,,70.0,Green to Orange,Blue to Pink,,,,,733.3000000119209,,,,o2ql6etsj,experiment_FR,,1297442,89.0,blocks-exp,
479,1081,311,33.0,23.0,,1.0,"[6, 6, 1, 7, 8, 5]","[8, 1, 4, 2, 6, 2]",11.5,,70.0,Green to Orange,Blue to Pink,,,,,2116.599999964237,,,,o2ql6etsj,experiment_FR,,1300565,90.0,blocks-exp,
480,1082,312,44.0,25.0,,1.0,"[8, 6, 8, 8, 8, 6]","[4, 3, 5, 8, 2, 3]",11.5,,70.0,Green to Orange,Blue to Pink,,,,,502.8999999761581,,,,o2ql6etsj,experiment_FR,,1302077,91.0,blocks-exp,
481,1083,313,25.0,25.0,,1.0,"[5, 6, 3, 3, 1, 7]","[6, 7, 4, 1, 5, 2]",11.5,,70.0,Green to Orange,Blue to Pink,,,,,2570.5,,,,o2ql6etsj,experiment_FR,,1305653,92.0,blocks-exp,
482,1084,314,21.0,18.0,,1.0,"[3, 3, 4, 5, 1, 5]","[1, 3, 3, 5, 3, 3]",11.5,,70.0,Green to Orange,Blue to Pink,,,,,1363.5999999642372,,,,o2ql6etsj,experiment_FR,,1308021,93.0,blocks-exp,
483,1085,315,35.0,22.0,,1.0,"[7, 6, 8, 4, 3, 7]","[6, 4, 2, 3, 1, 6]",11.5,,70.0,Green to Orange,Blue to Pink,,,,,911.5,,,,o2ql6etsj,experiment_FR,,1309937,94.0,blocks-exp,
484,1086,316,30.0,37.0,,1.0,"[6, 4, 4, 7, 2, 7]","[3, 8, 7, 6, 6, 7]",11.5,,74.0,Green to Orange,Blue to Pink,,,,,11252.5,,,,o2ql6etsj,experiment_FR,,1322193,95.0,blocks-exp,
485,1087,317,19.0,17.0,,1.0,"[2, 2, 4, 2, 4, 5]","[2, 1, 1, 4, 6, 3]",11.5,,70.0,Green to Orange,Blue to Pink,,,,,1952.899999976158,,,,o2ql6etsj,experiment_FR,,1325151,96.0,blocks-exp,
486,1088,318,26.0,29.0,,1.0,"[5, 5, 4, 8, 1, 3]","[6, 3, 5, 2, 6, 7]",11.5,,74.0,Green to Orange,Blue to Pink,,,,,6125.900000035763,,,,o2ql6etsj,experiment_FR,,1332282,97.0,blocks-exp,
487,1089,319,34.0,33.0,,1.0,"[2, 7, 6, 7, 7, 5]","[5, 5, 7, 3, 5, 8]",11.5,,70.0,Green to Orange,Blue to Pink,,,,,828.3000000119209,,,,o2ql6etsj,experiment_FR,,1334114,98.0,blocks-exp,
488,1090,320,33.0,23.0,,1.0,"[8, 3, 3, 7, 6, 6]","[3, 1, 8, 5, 4, 2]",11.5,,70.0,Green to Orange,Blue to Pink,,,,,748.3000000119209,,,,o2ql6etsj,experiment_FR,,1335865,99.0,blocks-exp,
489,1091,321,17.0,22.0,,1.0,"[1, 2, 3, 6, 3, 2]","[3, 4, 7, 4, 2, 2]",11.5,,74.0,Green to Orange,Blue to Pink,,,,,4955.899999976158,,,,o2ql6etsj,experiment_FR,,1341828,100.0,blocks-exp,
490,1092,322,24.0,24.0,,1.0,"[2, 4, 1, 8, 4, 5]","[6, 3, 3, 8, 3, 1]",11.5,,70.0,Green to Orange,Blue to Pink,,,,,7337.699999988079,,,,o2ql6etsj,experiment_FR,,1350170,101.0,blocks-exp,
491,1093,323,26.0,28.0,,1.0,"[3, 1, 6, 7, 7, 2]","[6, 5, 5, 7, 3, 2]",11.5,,74.0,Green to Orange,Blue to Pink,,,,,1556.0,,,,o2ql6etsj,experiment_FR,,1352731,102.0,blocks-exp,
492,1094,324,19.0,36.0,,1.0,"[5, 6, 2, 1, 2, 3]","[8, 4, 8, 7, 1, 8]",11.5,,74.0,Green to Orange,Blue to Pink,,,,,708.1000000238419,,,,o2ql6etsj,experiment_FR,,1354444,103.0,blocks-exp,
493,1095,325,26.0,26.0,,1.0,"[5, 7, 3, 4, 6, 1]","[7, 7, 4, 2, 1, 5]",11.5,,70.0,Green to Orange,Blue to Pink,,,,,4391.100000023842,,,,o2ql6etsj,experiment_FR,,1359840,104.0,blocks-exp,
494,1096,326,28.0,26.0,,1.0,"[3, 7, 3, 5, 8, 2]","[3, 8, 2, 5, 3, 5]",11.5,,70.0,Green to Orange,Blue to Pink,,,,,879.5999999642372,,,,o2ql6etsj,experiment_FR,,1361725,105.0,blocks-exp,
495,1097,327,26.0,27.0,,1.0,"[7, 7, 2, 2, 1, 7]","[2, 2, 5, 7, 5, 6]",11.5,,74.0,Green to Orange,Blue to Pink,,,,,828.0,,,,o2ql6etsj,experiment_FR,,1363557,106.0,blocks-exp,
496,1098,328,34.0,27.0,,1.0,"[7, 6, 6, 8, 6, 1]","[1, 2, 6, 8, 7, 3]",11.5,,70.0,Green to Orange,Blue to Pink,,,,,1595.7000000476835,,,,o2ql6etsj,experiment_FR,,1366157,107.0,blocks-exp,
497,1099,329,28.0,26.0,,1.0,"[2, 8, 3, 7, 4, 4]","[1, 5, 8, 4, 1, 7]",11.5,,70.0,Green to Orange,Blue to Pink,,,,,2854.699999988079,,,,o2ql6etsj,experiment_FR,,1370017,108.0,blocks-exp,
498,1100,330,29.0,24.0,,1.0,"[1, 7, 6, 2, 5, 8]","[5, 8, 2, 4, 3, 2]",11.5,,70.0,Green to Orange,Blue to Pink,,,,,807.5,,,,o2ql6etsj,experiment_FR,,1371832,109.0,blocks-exp,
499,1101,331,39.0,22.0,,1.0,"[8, 8, 3, 6, 7, 7]","[7, 2, 6, 2, 3, 2]",11.5,,70.0,Green to Orange,Blue to Pink,,,,,597.8000000119209,,,,o2ql6etsj,experiment_FR,,1373433,110.0,blocks-exp,
500,1102,332,22.0,27.0,,1.0,"[6, 3, 6, 1, 5, 1]","[5, 7, 6, 5, 2, 2]",11.5,,74.0,Green to Orange,Blue to Pink,,,,,1538.0999999642372,,,,o2ql6etsj,experiment_FR,,1375975,111.0,blocks-exp,
501,1103,333,22.0,29.0,,1.0,"[7, 3, 5, 2, 4, 1]","[5, 5, 5, 7, 6, 1]",11.5,,74.0,Green to Orange,Blue to Pink,,,,,1454.699999988079,,,,o2ql6etsj,experiment_FR,,1378450,112.0,blocks-exp,
502,1104,334,27.0,19.0,,1.0,"[6, 8, 1, 3, 3, 6]","[1, 6, 4, 4, 1, 3]",11.5,,70.0,Green to Orange,Blue to Pink,,,,,3053.199999988079,,,,o2ql6etsj,experiment_FR,,1382508,113.0,blocks-exp,
503,1105,335,27.0,28.0,,1.0,"[6, 3, 4, 1, 8, 5]","[7, 6, 5, 3, 4, 3]",11.5,,74.0,Green to Orange,Blue to Pink,,,,,3239.7999999523163,,,,o2ql6etsj,experiment_FR,,1386751,114.0,blocks-exp,
504,1106,336,33.0,17.0,,1.0,"[8, 3, 8, 4, 8, 2]","[1, 1, 5, 4, 1, 5]",11.5,,70.0,Green to Orange,Blue to Pink,,,,,1217.5999999642372,,,,o2ql6etsj,experiment_FR,,1388974,115.0,blocks-exp,
505,1107,337,28.0,37.0,,1.0,"[3, 3, 5, 8, 6, 3]","[2, 7, 5, 7, 8, 8]",11.5,,74.0,Green to Orange,Blue to Pink,,,,,730.0999999642372,,,,o2ql6etsj,experiment_FR,,1390708,116.0,blocks-exp,
506,1108,338,33.0,20.0,,1.0,"[2, 7, 7, 7, 6, 4]","[5, 2, 7, 2, 1, 3]",11.5,,70.0,Green to Orange,Blue to Pink,,,,,648.8999999761581,,,,o2ql6etsj,experiment_FR,,1392359,117.0,blocks-exp,
507,1109,339,27.0,24.0,,1.0,"[2, 5, 7, 5, 3, 5]","[2, 3, 8, 6, 2, 3]",11.5,,70.0,Green to Orange,Blue to Pink,,,,,5955.5,,,,o2ql6etsj,experiment_FR,,1399319,118.0,blocks-exp,
508,1110,340,32.0,25.0,,1.0,"[5, 8, 8, 2, 1, 8]","[6, 6, 3, 3, 1, 6]",11.5,,70.0,Green to Orange,Blue to Pink,,,,,762.4000000357628,,,,o2ql6etsj,experiment_FR,,1401086,119.0,blocks-exp,
509,1111,341,25.0,33.0,,1.0,"[1, 6, 4, 3, 3, 8]","[7, 7, 2, 8, 4, 5]",11.5,,74.0,Green to Orange,Blue to Pink,,,,,1095.899999976158,,,,o2ql6etsj,experiment_FR,,1403185,120.0,blocks-exp,
510,1112,342,28.0,24.0,,1.0,"[6, 4, 4, 3, 4, 7]","[6, 1, 5, 6, 2, 4]",11.5,,70.0,Green to Orange,Blue to Pink,,,,,995.7000000476836,,,,o2ql6etsj,experiment_FR,,1405186,121.0,blocks-exp,
511,1113,343,19.0,21.0,,0.0,"[4, 3, 5, 1, 2, 4]","[3, 7, 3, 6, 1, 1]",11.5,,70.0,Green to Orange,Blue to Pink,,,,,1537.0,,,,o2ql6etsj,experiment_FR,,1407728,122.0,blocks-exp,
512,1114,344,16.0,28.0,,1.0,"[4, 2, 1, 5, 2, 2]","[3, 4, 3, 5, 7, 6]",11.5,,74.0,Green to Orange,Blue to Pink,,,,,698.6000000238419,,,,o2ql6etsj,experiment_FR,,1409430,123.0,blocks-exp,
513,1115,345,27.0,20.0,,1.0,"[6, 6, 6, 6, 2, 1]","[1, 5, 4, 2, 7, 1]",11.5,,70.0,Green to Orange,Blue to Pink,,,,,684.3999999761581,,,,o2ql6etsj,experiment_FR,,1411118,124.0,blocks-exp,
514,1116,346,42.0,29.0,,1.0,"[6, 6, 8, 8, 6, 8]","[4, 4, 5, 3, 8, 5]",11.5,,70.0,Green to Orange,Blue to Pink,,,,,531.2000000476837,,,,o2ql6etsj,experiment_FR,,1412653,125.0,blocks-exp,
515,1117,347,29.0,27.0,,1.0,"[7, 6, 1, 4, 6, 5]","[2, 5, 7, 8, 4, 1]",11.5,,70.0,Green to Orange,Blue to Pink,,,,,4238.5,,,,o2ql6etsj,experiment_FR,,1417907,126.0,blocks-exp,
516,1118,348,31.0,25.0,,1.0,"[8, 2, 8, 2, 8, 3]","[8, 3, 3, 4, 6, 1]",11.5,,70.0,Green to Orange,Blue to Pink,,,,,1344.899999976158,,,,o2ql6etsj,experiment_FR,,1420256,127.0,blocks-exp,
517,1119,349,33.0,25.0,,1.0,"[5, 1, 8, 4, 8, 7]","[1, 6, 3, 6, 2, 7]",11.5,,70.0,Green to Orange,Blue to Pink,,,,,1413.0,,,,o2ql6etsj,experiment_FR,,1422673,128.0,blocks-exp,
518,1120,350,26.0,22.0,,1.0,"[6, 2, 8, 3, 6, 1]","[4, 1, 7, 2, 3, 5]",11.5,,70.0,Green to Orange,Blue to Pink,,,,,921.6999999880792,,,,o2ql6etsj,experiment_FR,,1424606,129.0,blocks-exp,
519,1121,351,27.0,35.0,,1.0,"[4, 2, 6, 4, 4, 7]","[3, 3, 8, 8, 6, 7]",11.5,,74.0,Green to Orange,Blue to Pink,,,,,828.0,,,,o2ql6etsj,experiment_FR,,1426438,130.0,blocks-exp,
520,1122,352,33.0,17.0,,1.0,"[5, 8, 4, 4, 7, 5]","[2, 1, 3, 3, 2, 6]",11.5,,70.0,Green to Orange,Blue to Pink,,,,,796.8000000119209,,,,o2ql6etsj,experiment_FR,,1428239,131.0,blocks-exp,
521,1123,353,37.0,31.0,,1.0,"[6, 7, 6, 6, 8, 4]","[1, 8, 8, 6, 2, 6]",11.5,,70.0,Green to Orange,Blue to Pink,,,,,1108.399999976158,,,,o2ql6etsj,experiment_FR,,1430352,132.0,blocks-exp,
522,1124,354,25.0,31.0,,1.0,"[5, 4, 7, 4, 2, 3]","[7, 6, 4, 7, 1, 6]",11.5,,74.0,Green to Orange,Blue to Pink,,,,,1224.699999988079,,,,o2ql6etsj,experiment_FR,,1432582,133.0,blocks-exp,
523,1125,355,26.0,23.0,,1.0,"[7, 3, 2, 6, 7, 1]","[3, 8, 1, 4, 4, 3]",11.5,,70.0,Green to Orange,Blue to Pink,,,,,1043.100000023842,,,,o2ql6etsj,experiment_FR,,1434630,134.0,blocks-exp,
524,1126,356,34.0,31.0,,0.0,"[2, 4, 7, 8, 8, 5]","[4, 5, 4, 3, 8, 7]",11.5,,74.0,Green to Orange,Blue to Pink,,,,,1912.5999999642368,,,,o2ql6etsj,experiment_FR,,1437548,135.0,blocks-exp,
525,1127,357,24.0,30.0,,1.0,"[1, 4, 6, 6, 5, 2]","[7, 2, 8, 5, 4, 4]",11.5,,74.0,Green to Orange,Blue to Pink,,,,,2295.400000035763,,,,o2ql6etsj,experiment_FR,,1440847,136.0,blocks-exp,
526,1128,358,22.0,28.0,,1.0,"[1, 1, 6, 5, 5, 4]","[3, 4, 7, 6, 1, 7]",11.5,,74.0,Green to Orange,Blue to Pink,,,,,1076.800000011921,,,,o2ql6etsj,experiment_FR,,1442931,137.0,blocks-exp,
527,1129,359,27.0,31.0,,1.0,"[5, 1, 4, 1, 8, 8]","[8, 5, 8, 2, 1, 7]",11.5,,74.0,Green to Orange,Blue to Pink,,,,,2522.200000047684,,,,o2ql6etsj,experiment_FR,,1446457,138.0,blocks-exp,
528,1130,360,29.0,30.0,,0.0,"[3, 3, 8, 6, 7, 2]","[3, 3, 7, 7, 3, 7]",11.5,,70.0,Green to Orange,Blue to Pink,,,,,1079.5999999642372,,,,o2ql6etsj,experiment_FR,,1448540,139.0,blocks-exp,
529,1131,361,23.0,33.0,,1.0,"[3, 8, 5, 1, 2, 4]","[4, 5, 5, 4, 8, 7]",11.5,,74.0,Green to Orange,Blue to Pink,,,,,892.0999999642372,,,,o2ql6etsj,experiment_FR,,1450437,140.0,blocks-exp,
530,1132,362,19.0,27.0,,1.0,"[3, 2, 3, 4, 1, 6]","[2, 4, 6, 8, 2, 5]",11.5,,74.0,Green to Orange,Blue to Pink,,,,,685.5999999642372,,,,o2ql6etsj,experiment_FR,,1452127,141.0,blocks-exp,
531,1133,363,22.0,35.0,,1.0,"[1, 4, 3, 8, 4, 2]","[8, 1, 8, 5, 6, 7]",11.5,,74.0,Green to Orange,Blue to Pink,,,,,533.6999999880791,,,,o2ql6etsj,experiment_FR,,1453665,142.0,blocks-exp,
532,1134,364,29.0,24.0,,1.0,"[7, 7, 8, 1, 4, 2]","[3, 5, 4, 1, 8, 3]",11.5,,70.0,Green to Orange,Blue to Pink,,,,,491.5,,,,o2ql6etsj,experiment_FR,,1455161,143.0,blocks-exp,
533,1135,365,20.0,29.0,,1.0,"[6, 4, 1, 1, 6, 2]","[4, 3, 3, 5, 7, 7]",11.5,,74.0,Green to Orange,Blue to Pink,,,,,597.5,,,,o2ql6etsj,experiment_FR,,1456762,144.0,blocks-exp,
534,1136,366,24.0,27.0,,0.0,"[2, 5, 2, 7, 6, 2]","[5, 6, 4, 5, 6, 1]",11.5,,70.0,Green to Orange,Blue to Pink,,,,,1824.300000011921,,,,o2ql6etsj,experiment_FR,,1459597,145.0,blocks-exp,
535,1137,367,36.0,35.0,,1.0,"[6, 7, 5, 4, 6, 8]","[5, 2, 8, 8, 6, 6]",11.5,,70.0,Green to Orange,Blue to Pink,,,,,1020.3000000119208,,,,o2ql6etsj,experiment_FR,,1461623,146.0,blocks-exp,
536,1138,368,19.0,27.0,,1.0,"[2, 2, 7, 2, 5, 1]","[2, 2, 6, 8, 5, 4]",11.5,,74.0,Green to Orange,Blue to Pink,,,,,1168.100000023842,,,,o2ql6etsj,experiment_FR,,1463811,147.0,blocks-exp,
537,1139,369,27.0,20.0,,1.0,"[8, 1, 1, 7, 2, 8]","[1, 3, 2, 5, 3, 6]",11.5,,70.0,Green to Orange,Blue to Pink,,,,,764.3000000119209,,,,o2ql6etsj,experiment_FR,,1465580,148.0,blocks-exp,
538,1140,370,13.0,27.0,,1.0,"[1, 3, 1, 1, 4, 3]","[5, 4, 6, 3, 5, 4]",11.5,,74.0,Green to Orange,Blue to Pink,,,,,619.9000000357628,,,,o2ql6etsj,experiment_FR,,1467203,149.0,blocks-exp,
539,1141,371,23.0,34.0,,1.0,"[6, 1, 3, 6, 5, 2]","[6, 6, 2, 8, 5, 7]",11.5,,74.0,Green to Orange,Blue to Pink,,,,,953.8000000119208,,,,o2ql6etsj,experiment_FR,,1469161,150.0,blocks-exp,
540,1347,192,28.0,24.0,,0.0,"[6, 3, 7, 1, 5, 6]","[2, 1, 4, 7, 7, 3]",13.0,,74.0,Blue to Pink,Green to Orange,,,,,3307.599999964237,,,,g9aul727y,training_FR,,1083362,1.0,blocks,
541,1348,193,32.0,33.0,,0.0,"[2, 8, 2, 5, 7, 8]","[8, 6, 7, 7, 4, 1]",13.0,,70.0,Blue to Pink,Green to Orange,,,,,3319.0,,,,g9aul727y,training_FR,,1088694,2.0,blocks,
542,1349,194,28.0,29.0,,1.0,"[8, 3, 1, 2, 7, 7]","[4, 8, 2, 1, 7, 7]",13.0,,74.0,Blue to Pink,Green to Orange,,,,,838.1000000238419,,,,g9aul727y,training_FR,,1091545,3.0,blocks,
543,1350,195,36.0,27.0,,1.0,"[6, 8, 6, 6, 8, 2]","[1, 6, 8, 6, 1, 5]",13.0,,70.0,Blue to Pink,Green to Orange,,,,,2512.0,,,,g9aul727y,training_FR,,1096069,4.0,blocks,
544,1351,196,33.0,19.0,,1.0,"[8, 6, 6, 3, 3, 7]","[6, 1, 2, 3, 1, 6]",13.0,,70.0,Blue to Pink,Green to Orange,,,,,1376.5999999642372,,,,g9aul727y,training_FR,,1099457,5.0,blocks,
545,1352,197,32.0,20.0,,1.0,"[5, 3, 8, 5, 4, 7]","[4, 4, 5, 2, 2, 3]",13.0,,70.0,Blue to Pink,Green to Orange,,,,,2384.300000011921,,,,g9aul727y,training_FR,,1103879,6.0,blocks,
546,1353,198,32.0,18.0,,1.0,"[6, 3, 2, 8, 5, 8]","[1, 1, 6, 4, 3, 3]",13.0,,70.0,Blue to Pink,Green to Orange,,,,,116.19999998807909,,,,g9aul727y,training_FR,,1106007,7.0,blocks,
547,1354,199,23.0,32.0,,1.0,"[8, 3, 1, 8, 2, 1]","[5, 6, 3, 2, 8, 8]",13.0,,74.0,Blue to Pink,Green to Orange,,,,,1240.199999988079,,,,g9aul727y,training_FR,,1109258,8.0,blocks,
548,1355,200,24.0,32.0,,1.0,"[1, 3, 8, 3, 2, 7]","[6, 4, 3, 8, 3, 8]",13.0,,74.0,Blue to Pink,Green to Orange,,,,,1912.899999976158,,,,g9aul727y,training_FR,,1113185,9.0,blocks,
549,1356,201,40.0,25.0,,1.0,"[8, 8, 6, 6, 8, 4]","[7, 4, 1, 2, 4, 7]",13.0,,70.0,Blue to Pink,Green to Orange,,,,,2197.100000023842,,,,g9aul727y,training_FR,,1117391,10.0,blocks,
550,1357,202,19.0,28.0,,1.0,"[2, 3, 6, 1, 3, 4]","[8, 3, 1, 5, 6, 5]",13.0,,74.0,Blue to Pink,Green to Orange,,,,,828.5,,,,g9aul727y,training_FR,,1120230,11.0,blocks,
551,1358,203,35.0,34.0,,1.0,"[8, 1, 8, 8, 3, 7]","[8, 7, 6, 2, 6, 5]",13.0,,70.0,Blue to Pink,Green to Orange,,,,,721.5999999642372,,,,g9aul727y,training_FR,,1122961,12.0,blocks,
552,1359,204,25.0,31.0,,0.0,"[2, 5, 8, 1, 2, 7]","[7, 3, 5, 5, 5, 6]",13.0,,70.0,Blue to Pink,Green to Orange,,,,,890.0,,,,g9aul727y,training_FR,,1125860,13.0,blocks,
