,index,Unnamed: 0,Left_sum,Right_sum,acc2_VB,accuracy,arr_L,arr_R,compensation,first_rainbow,key_press,rainbow1,rainbow2,randidx_FR,randidx_VB,response,reward_val_VB,rt,second_rainbow,slider_start,stimulus,subject,task,testvalue,time_elapsed,trialN,trial_type,value
0,192,192,26.0,24.0,,0.0,"[2, 4, 5, 4, 6, 5]","[3, 6, 8, 3, 3, 1]",11.5,,74.0,Green to Orange,Pink to Blue,,,,,1521.699999988079,,,,hwrblsy3h,training_VB,,689787,1.0,blocks,
1,193,193,20.0,30.0,,1.0,"[3, 2, 7, 4, 1, 3]","[6, 4, 7, 8, 3, 2]",11.5,,74.0,Green to Orange,Pink to Blue,,,,,2007.5,,,,hwrblsy3h,training_VB,,693810,2.0,blocks,
2,194,194,17.0,23.0,,1.0,"[3, 6, 1, 2, 2, 3]","[8, 2, 1, 2, 8, 2]",11.5,,74.0,Green to Orange,Pink to Blue,,,,,752.2000000178814,,,,hwrblsy3h,training_VB,,696584,3.0,blocks,
3,195,195,36.0,13.0,,1.0,"[2, 7, 7, 8, 5, 7]","[1, 6, 2, 1, 1, 2]",11.5,,70.0,Green to Orange,Pink to Blue,,,,,485.90000000596046,,,,hwrblsy3h,training_VB,,699086,4.0,blocks,
4,196,196,20.0,26.0,,1.0,"[3, 5, 4, 2, 3, 3]","[6, 5, 5, 1, 3, 6]",11.5,,74.0,Green to Orange,Pink to Blue,,,,,783.5,,,,hwrblsy3h,training_VB,,701884,5.0,blocks,
5,197,197,29.0,23.0,,1.0,"[3, 4, 6, 2, 6, 8]","[2, 3, 2, 7, 8, 1]",11.5,,70.0,Green to Orange,Pink to Blue,,,,,581.5999999940395,,,,hwrblsy3h,training_VB,,704479,6.0,blocks,
6,198,198,27.0,21.0,,1.0,"[1, 4, 6, 6, 4, 6]","[1, 2, 3, 4, 7, 4]",11.5,,70.0,Green to Orange,Pink to Blue,,,,,711.8999999761581,,,,hwrblsy3h,training_VB,,707202,7.0,blocks,
7,199,199,17.0,29.0,,1.0,"[3, 1, 6, 5, 1, 1]","[6, 8, 3, 7, 4, 1]",11.5,,74.0,Green to Orange,Pink to Blue,,,,,613.0,,,,hwrblsy3h,training_VB,,709825,8.0,blocks,
8,200,200,25.0,21.0,,1.0,"[8, 5, 1, 5, 4, 2]","[1, 7, 1, 3, 6, 3]",11.5,,70.0,Green to Orange,Pink to Blue,,,,,70563.59999999404,,,,hwrblsy3h,training_VB,,782399,9.0,blocks,
9,201,201,26.0,23.0,,1.0,"[6, 7, 2, 4, 3, 4]","[7, 5, 3, 2, 3, 3]",11.5,,70.0,Green to Orange,Pink to Blue,,,,,673.3999999761581,,,,hwrblsy3h,training_VB,,785087,10.0,blocks,
10,202,202,29.0,27.0,,1.0,"[1, 6, 7, 8, 5, 2]","[1, 8, 5, 5, 6, 2]",11.5,,70.0,Green to Orange,Pink to Blue,,,,,589.5,,,,hwrblsy3h,training_VB,,787690,11.0,blocks,
11,203,203,41.0,28.0,,1.0,"[7, 7, 8, 6, 8, 5]","[3, 5, 5, 8, 6, 1]",11.5,,70.0,Green to Orange,Pink to Blue,,,,,442.59999999403954,,,,hwrblsy3h,training_VB,,790144,12.0,blocks,
12,204,204,31.0,29.0,,0.0,"[5, 5, 5, 6, 8, 2]","[2, 8, 1, 2, 8, 8]",11.5,,74.0,Green to Orange,Pink to Blue,,,,,1620.7000000178814,,,,hwrblsy3h,training_VB,,793789,13.0,blocks,
13,205,205,35.0,25.0,,1.0,"[8, 5, 8, 6, 5, 3]","[6, 1, 4, 7, 6, 1]",11.5,,70.0,Green to Orange,Pink to Blue,,,,,568.8000000119209,,,,hwrblsy3h,training_VB,,796372,14.0,blocks,
14,206,206,28.0,29.0,,1.0,"[5, 8, 4, 3, 3, 5]","[3, 6, 6, 6, 1, 7]",11.5,,74.0,Green to Orange,Pink to Blue,,,,,689.7000000178814,,,,hwrblsy3h,training_VB,,799074,15.0,blocks,
15,207,207,23.0,25.0,,1.0,"[2, 2, 7, 3, 7, 2]","[1, 8, 3, 6, 4, 3]",11.5,,74.0,Green to Orange,Pink to Blue,,,,,697.8000000119209,,,,hwrblsy3h,training_VB,,801782,16.0,blocks,
16,208,208,26.0,33.0,,1.0,"[1, 5, 5, 4, 3, 8]","[6, 5, 4, 5, 8, 5]",11.5,,74.0,Green to Orange,Pink to Blue,,,,,562.8000000119209,,,,hwrblsy3h,training_VB,,804360,17.0,blocks,
17,209,209,23.0,26.0,,1.0,"[3, 8, 1, 3, 5, 3]","[3, 1, 7, 4, 4, 7]",11.5,,74.0,Green to Orange,Pink to Blue,,,,,502.40000000596046,,,,hwrblsy3h,training_VB,,806873,18.0,blocks,
18,210,210,30.0,26.0,,0.0,"[4, 1, 6, 8, 8, 3]","[1, 7, 6, 2, 8, 2]",11.5,,74.0,Green to Orange,Pink to Blue,,,,,2554.0,,,,hwrblsy3h,training_VB,,811435,19.0,blocks,
19,211,211,24.0,21.0,,1.0,"[3, 5, 3, 2, 8, 3]","[2, 4, 4, 1, 8, 2]",11.5,,70.0,Green to Orange,Pink to Blue,,,,,1280.199999988079,,,,hwrblsy3h,training_VB,,814721,20.0,blocks,
20,212,212,27.0,26.0,,1.0,"[6, 4, 6, 3, 3, 5]","[6, 3, 6, 6, 1, 4]",11.5,,70.0,Green to Orange,Pink to Blue,,,,,542.1000000238419,,,,hwrblsy3h,training_VB,,817273,21.0,blocks,
21,213,213,29.0,28.0,,1.0,"[2, 8, 8, 5, 1, 5]","[4, 5, 7, 3, 7, 2]",11.5,,70.0,Green to Orange,Pink to Blue,,,,,631.2000000178814,,,,hwrblsy3h,training_VB,,819912,22.0,blocks,
22,214,214,26.0,25.0,,1.0,"[6, 4, 4, 2, 7, 3]","[3, 4, 7, 1, 5, 5]",11.5,,70.0,Green to Orange,Pink to Blue,,,,,865.1999999880791,,,,hwrblsy3h,training_VB,,822789,23.0,blocks,
23,215,215,31.0,20.0,,1.0,"[6, 7, 4, 7, 1, 6]","[1, 4, 1, 3, 6, 5]",11.5,,70.0,Green to Orange,Pink to Blue,,,,,501.2000000178814,,,,hwrblsy3h,training_VB,,825301,24.0,blocks,
24,216,216,27.0,22.0,,1.0,"[3, 3, 7, 4, 4, 6]","[4, 1, 6, 4, 2, 5]",11.5,,70.0,Green to Orange,Pink to Blue,,,,,758.2000000178814,,,,hwrblsy3h,training_VB,,828069,25.0,blocks,
25,217,217,24.0,31.0,,1.0,"[1, 6, 6, 6, 3, 2]","[7, 7, 1, 8, 3, 5]",11.5,,74.0,Green to Orange,Pink to Blue,,,,,926.5,,,,hwrblsy3h,training_VB,,831005,26.0,blocks,
26,218,218,27.0,34.0,,1.0,"[1, 8, 3, 3, 7, 5]","[7, 3, 2, 8, 8, 6]",11.5,,74.0,Green to Orange,Pink to Blue,,,,,586.1999999880791,,,,hwrblsy3h,training_VB,,833604,27.0,blocks,
27,219,219,30.0,32.0,,1.0,"[4, 2, 8, 3, 8, 5]","[8, 2, 8, 4, 3, 7]",11.5,,74.0,Green to Orange,Pink to Blue,,,,,511.40000000596046,,,,hwrblsy3h,training_VB,,836129,28.0,blocks,
28,220,220,26.0,34.0,,1.0,"[2, 3, 2, 5, 6, 8]","[3, 8, 4, 7, 7, 5]",11.5,,74.0,Green to Orange,Pink to Blue,,,,,510.59999999403954,,,,hwrblsy3h,training_VB,,838653,29.0,blocks,
29,221,221,33.0,20.0,,1.0,"[8, 6, 6, 5, 6, 2]","[4, 4, 2, 3, 1, 6]",11.5,,70.0,Green to Orange,Pink to Blue,,,,,1159.7000000178814,,,,hwrblsy3h,training_VB,,841822,30.0,blocks,
30,222,222,34.0,30.0,,1.0,"[3, 4, 5, 7, 8, 7]","[7, 5, 5, 8, 1, 4]",11.5,,70.0,Green to Orange,Pink to Blue,,,,,1036.5999999940395,,,,hwrblsy3h,experiment_VB,,875668,1.0,blocks-exp,
31,223,223,18.0,44.0,,1.0,"[1, 3, 1, 6, 5, 2]","[8, 7, 7, 7, 7, 8]",11.5,,74.0,Green to Orange,Pink to Blue,,,,,565.5,,,,hwrblsy3h,experiment_VB,,877241,2.0,blocks-exp,
32,224,224,25.0,19.0,,1.0,"[1, 7, 1, 2, 7, 7]","[3, 4, 1, 8, 1, 2]",11.5,,70.0,Green to Orange,Pink to Blue,,,,,834.3000000119209,,,,hwrblsy3h,experiment_VB,,879087,3.0,blocks-exp,
33,225,225,32.0,23.0,,1.0,"[2, 7, 6, 8, 8, 1]","[1, 2, 6, 4, 2, 8]",11.5,,70.0,Green to Orange,Pink to Blue,,,,,781.5,,,,hwrblsy3h,experiment_VB,,880881,4.0,blocks-exp,
34,226,226,32.0,14.0,,1.0,"[8, 8, 4, 2, 7, 3]","[3, 3, 4, 1, 1, 2]",11.5,,70.0,Green to Orange,Pink to Blue,,,,,765.4000000059605,,,,hwrblsy3h,experiment_VB,,882657,5.0,blocks-exp,
35,227,227,20.0,37.0,,1.0,"[3, 3, 3, 2, 1, 8]","[7, 7, 7, 7, 1, 8]",11.5,,74.0,Green to Orange,Pink to Blue,,,,,571.8000000119209,,,,hwrblsy3h,experiment_VB,,884242,6.0,blocks-exp,
36,228,228,23.0,14.0,,1.0,"[1, 4, 8, 8, 1, 1]","[1, 3, 1, 6, 1, 2]",11.5,,70.0,Green to Orange,Pink to Blue,,,,,691.7000000178814,,,,hwrblsy3h,experiment_VB,,885945,7.0,blocks-exp,
37,229,229,35.0,24.0,,1.0,"[8, 8, 5, 3, 3, 8]","[3, 3, 7, 2, 4, 5]",11.5,,70.0,Green to Orange,Pink to Blue,,,,,513.0,,,,hwrblsy3h,experiment_VB,,887464,8.0,blocks-exp,
38,230,230,38.0,25.0,,1.0,"[7, 8, 8, 6, 3, 6]","[7, 2, 7, 3, 3, 3]",11.5,,70.0,Green to Orange,Pink to Blue,,,,,496.7000000178814,,,,hwrblsy3h,experiment_VB,,888973,9.0,blocks-exp,
39,231,231,18.0,19.0,,0.0,"[7, 1, 2, 6, 1, 1]","[4, 4, 1, 1, 2, 7]",11.5,,70.0,Green to Orange,Pink to Blue,,,,,3492.0,,,,hwrblsy3h,experiment_VB,,893478,10.0,blocks-exp,
40,232,232,27.0,33.0,,1.0,"[1, 1, 6, 8, 3, 8]","[8, 6, 7, 3, 8, 1]",11.5,,74.0,Green to Orange,Pink to Blue,,,,,884.2999999821186,,,,hwrblsy3h,experiment_VB,,895370,11.0,blocks-exp,
41,233,233,31.0,21.0,,1.0,"[5, 5, 8, 7, 2, 4]","[6, 1, 2, 7, 1, 4]",11.5,,70.0,Green to Orange,Pink to Blue,,,,,762.4000000059605,,,,hwrblsy3h,experiment_VB,,897143,12.0,blocks-exp,
42,234,234,22.0,31.0,,1.0,"[3, 3, 7, 3, 4, 2]","[8, 5, 2, 4, 7, 5]",11.5,,74.0,Green to Orange,Pink to Blue,,,,,1012.7999999821186,,,,hwrblsy3h,experiment_VB,,899166,13.0,blocks-exp,
43,235,235,23.0,31.0,,1.0,"[1, 7, 1, 1, 8, 5]","[8, 1, 5, 8, 5, 4]",11.5,,74.0,Green to Orange,Pink to Blue,,,,,621.8000000119209,,,,hwrblsy3h,experiment_VB,,900797,14.0,blocks-exp,
44,236,236,24.0,30.0,,1.0,"[1, 7, 3, 7, 2, 4]","[1, 7, 5, 7, 8, 2]",11.5,,74.0,Green to Orange,Pink to Blue,,,,,658.7000000178814,,,,hwrblsy3h,experiment_VB,,902470,15.0,blocks-exp,
45,237,237,26.0,30.0,,1.0,"[2, 6, 1, 3, 8, 6]","[2, 7, 8, 7, 4, 2]",11.5,,74.0,Green to Orange,Pink to Blue,,,,,563.8000000119209,,,,hwrblsy3h,experiment_VB,,904054,16.0,blocks-exp,
46,238,238,31.0,30.0,,0.0,"[4, 7, 4, 2, 8, 6]","[7, 4, 7, 8, 1, 3]",11.5,,74.0,Green to Orange,Pink to Blue,,,,,563.0,,,,hwrblsy3h,experiment_VB,,905627,17.0,blocks-exp,
47,239,239,30.0,25.0,,0.0,"[4, 6, 5, 1, 6, 8]","[6, 4, 8, 3, 2, 2]",11.5,,74.0,Green to Orange,Pink to Blue,,,,,560.3999999761581,,,,hwrblsy3h,experiment_VB,,907200,18.0,blocks-exp,
48,240,240,19.0,24.0,,1.0,"[2, 4, 1, 7, 1, 4]","[4, 2, 8, 4, 5, 1]",11.5,,74.0,Green to Orange,Pink to Blue,,,,,2531.5,,,,hwrblsy3h,experiment_VB,,910742,19.0,blocks-exp,
49,241,241,23.0,34.0,,1.0,"[7, 2, 7, 2, 4, 1]","[7, 2, 3, 7, 7, 8]",11.5,,74.0,Green to Orange,Pink to Blue,,,,,634.6999999880791,,,,hwrblsy3h,experiment_VB,,912390,20.0,blocks-exp,
50,242,242,15.0,12.0,,1.0,"[6, 2, 2, 2, 1, 2]","[2, 2, 4, 1, 1, 2]",11.5,,70.0,Green to Orange,Pink to Blue,,,,,1181.5,,,,hwrblsy3h,experiment_VB,,914584,21.0,blocks-exp,
51,243,243,14.0,28.0,,1.0,"[2, 1, 2, 1, 5, 3]","[2, 1, 7, 7, 7, 4]",11.5,,74.0,Green to Orange,Pink to Blue,,,,,555.6999999880791,,,,hwrblsy3h,experiment_VB,,916151,22.0,blocks-exp,
52,244,244,17.0,30.0,,1.0,"[5, 4, 1, 2, 1, 4]","[2, 4, 6, 5, 6, 7]",11.5,,74.0,Green to Orange,Pink to Blue,,,,,496.8000000119209,,,,hwrblsy3h,experiment_VB,,917661,23.0,blocks-exp,
53,245,245,24.0,24.0,,1.0,"[4, 3, 4, 8, 3, 2]","[3, 2, 4, 8, 1, 6]",11.5,,74.0,Green to Orange,Pink to Blue,,,,,623.7000000178814,,,,hwrblsy3h,experiment_VB,,919295,24.0,blocks-exp,
54,246,246,27.0,36.0,,1.0,"[8, 6, 2, 2, 2, 7]","[5, 7, 2, 8, 6, 8]",11.5,,74.0,Green to Orange,Pink to Blue,,,,,595.5,,,,hwrblsy3h,experiment_VB,,920901,25.0,blocks-exp,
55,247,247,23.0,18.0,,0.0,"[4, 4, 6, 1, 1, 7]","[7, 1, 1, 3, 1, 5]",11.5,,74.0,Green to Orange,Pink to Blue,,,,,462.90000000596046,,,,hwrblsy3h,experiment_VB,,922375,26.0,blocks-exp,
56,248,248,28.0,25.0,,0.0,"[3, 2, 6, 7, 2, 8]","[3, 7, 1, 7, 6, 1]",11.5,,74.0,Green to Orange,Pink to Blue,,,,,1321.9000000059605,,,,hwrblsy3h,experiment_VB,,924708,27.0,blocks-exp,
57,249,249,31.0,35.0,,0.0,"[2, 8, 8, 6, 6, 1]","[5, 3, 7, 8, 6, 6]",11.5,,70.0,Green to Orange,Pink to Blue,,,,,751.6000000238419,,,,hwrblsy3h,experiment_VB,,926479,28.0,blocks-exp,
58,250,250,25.0,28.0,,1.0,"[2, 6, 2, 3, 6, 6]","[7, 8, 2, 2, 4, 5]",11.5,,74.0,Green to Orange,Pink to Blue,,,,,1084.9000000059605,,,,hwrblsy3h,experiment_VB,,928574,29.0,blocks-exp,
59,251,251,36.0,23.0,,1.0,"[8, 4, 7, 2, 8, 7]","[2, 7, 3, 5, 4, 2]",11.5,,70.0,Green to Orange,Pink to Blue,,,,,728.0,,,,hwrblsy3h,experiment_VB,,930310,30.0,blocks-exp,
60,252,252,28.0,22.0,,1.0,"[5, 4, 3, 7, 4, 5]","[3, 3, 7, 2, 3, 4]",11.5,,70.0,Green to Orange,Pink to Blue,,,,,1788.7000000178814,,,,hwrblsy3h,experiment_VB,,933108,31.0,blocks-exp,
61,253,253,37.0,36.0,,1.0,"[8, 7, 6, 3, 5, 8]","[2, 7, 7, 8, 4, 8]",11.5,,70.0,Green to Orange,Pink to Blue,,,,,3221.399999976158,,,,hwrblsy3h,experiment_VB,,937340,32.0,blocks-exp,
62,254,254,21.0,29.0,,1.0,"[8, 2, 3, 4, 3, 1]","[5, 3, 5, 8, 1, 7]",11.5,,74.0,Green to Orange,Pink to Blue,,,,,940.0,,,,hwrblsy3h,experiment_VB,,939291,33.0,blocks-exp,
63,255,255,24.0,30.0,,1.0,"[6, 2, 7, 1, 3, 5]","[6, 4, 4, 4, 4, 8]",11.5,,74.0,Green to Orange,Pink to Blue,,,,,1150.2000000178814,,,,hwrblsy3h,experiment_VB,,941455,34.0,blocks-exp,
64,256,256,29.0,24.0,,0.0,"[8, 5, 7, 4, 3, 2]","[3, 7, 5, 3, 4, 2]",11.5,,74.0,Green to Orange,Pink to Blue,,,,,1053.5999999940395,,,,hwrblsy3h,experiment_VB,,943516,35.0,blocks-exp,
65,257,257,27.0,32.0,,1.0,"[3, 3, 7, 2, 4, 8]","[3, 2, 8, 8, 8, 3]",11.5,,74.0,Green to Orange,Pink to Blue,,,,,797.8000000119209,,,,hwrblsy3h,experiment_VB,,945328,36.0,blocks-exp,
66,258,258,22.0,26.0,,1.0,"[6, 1, 1, 8, 1, 5]","[4, 2, 5, 6, 4, 5]",11.5,,74.0,Green to Orange,Pink to Blue,,,,,926.100000023842,,,,hwrblsy3h,experiment_VB,,947266,37.0,blocks-exp,
67,259,259,29.0,15.0,,1.0,"[3, 7, 6, 4, 2, 7]","[6, 2, 3, 2, 1, 1]",11.5,,70.0,Green to Orange,Pink to Blue,,,,,720.0,,,,hwrblsy3h,experiment_VB,,948996,38.0,blocks-exp,
68,260,260,14.0,23.0,,1.0,"[1, 4, 2, 4, 2, 1]","[3, 3, 2, 3, 4, 8]",11.5,,74.0,Green to Orange,Pink to Blue,,,,,852.0,,,,hwrblsy3h,experiment_VB,,950859,39.0,blocks-exp,
69,261,261,19.0,24.0,,1.0,"[6, 6, 1, 2, 1, 3]","[6, 3, 5, 2, 5, 3]",11.5,,74.0,Green to Orange,Pink to Blue,,,,,1935.0,,,,hwrblsy3h,experiment_VB,,953809,40.0,blocks-exp,
70,262,262,19.0,21.0,,1.0,"[1, 2, 3, 6, 4, 3]","[4, 4, 7, 2, 3, 1]",11.5,,74.0,Green to Orange,Pink to Blue,,,,,1627.0999999940395,,,,hwrblsy3h,experiment_VB,,956445,41.0,blocks-exp,
71,263,263,23.0,34.0,,1.0,"[3, 3, 5, 3, 3, 6]","[4, 4, 4, 6, 8, 8]",11.5,,74.0,Green to Orange,Pink to Blue,,,,,575.6999999880791,,,,hwrblsy3h,experiment_VB,,958035,42.0,blocks-exp,
72,264,264,30.0,26.0,,1.0,"[6, 7, 5, 4, 1, 7]","[7, 4, 6, 4, 3, 2]",11.5,,70.0,Green to Orange,Pink to Blue,,,,,765.2999999821186,,,,hwrblsy3h,experiment_VB,,959811,43.0,blocks-exp,
73,265,265,26.0,17.0,,1.0,"[6, 1, 6, 8, 4, 1]","[1, 3, 2, 3, 7, 1]",11.5,,70.0,Green to Orange,Pink to Blue,,,,,1265.5,,,,hwrblsy3h,experiment_VB,,962089,44.0,blocks-exp,
74,266,266,29.0,30.0,,1.0,"[3, 8, 6, 2, 8, 2]","[3, 5, 6, 1, 7, 8]",11.5,,74.0,Green to Orange,Pink to Blue,,,,,1105.800000011921,,,,hwrblsy3h,experiment_VB,,964206,45.0,blocks-exp,
75,267,267,29.0,21.0,,1.0,"[7, 5, 8, 5, 1, 3]","[2, 1, 8, 6, 1, 3]",11.5,,70.0,Green to Orange,Pink to Blue,,,,,1449.0999999940395,,,,hwrblsy3h,experiment_VB,,966661,46.0,blocks-exp,
76,268,268,27.0,26.0,,1.0,"[8, 2, 1, 7, 2, 7]","[2, 1, 8, 7, 2, 6]",11.5,,70.0,Green to Orange,Pink to Blue,,,,,782.6000000238419,,,,hwrblsy3h,experiment_VB,,968455,47.0,blocks-exp,
77,269,269,19.0,29.0,,1.0,"[2, 2, 5, 1, 4, 5]","[6, 5, 7, 3, 6, 2]",11.5,,74.0,Green to Orange,Pink to Blue,,,,,1294.199999988079,,,,hwrblsy3h,experiment_VB,,970762,48.0,blocks-exp,
78,270,270,18.0,20.0,,1.0,"[2, 3, 4, 6, 1, 2]","[1, 2, 8, 1, 2, 6]",11.5,,74.0,Green to Orange,Pink to Blue,,,,,1718.0999999940395,,,,hwrblsy3h,experiment_VB,,973488,49.0,blocks-exp,
79,271,271,10.0,28.0,,1.0,"[1, 1, 1, 3, 1, 3]","[1, 8, 7, 5, 1, 6]",11.5,,74.0,Green to Orange,Pink to Blue,,,,,757.0999999940395,,,,hwrblsy3h,experiment_VB,,975258,50.0,blocks-exp,
80,272,272,30.0,34.0,,0.0,"[1, 7, 8, 7, 5, 2]","[3, 5, 6, 8, 4, 8]",11.5,,70.0,Green to Orange,Pink to Blue,,,,,729.5999999940395,,,,hwrblsy3h,experiment_VB,,977001,51.0,blocks-exp,
81,273,273,33.0,31.0,,1.0,"[7, 8, 4, 6, 3, 5]","[6, 8, 4, 8, 4, 1]",11.5,,70.0,Green to Orange,Pink to Blue,,,,,1439.9000000059605,,,,hwrblsy3h,experiment_VB,,979449,52.0,blocks-exp,
82,274,274,34.0,30.0,,1.0,"[8, 7, 1, 3, 7, 8]","[8, 5, 1, 3, 8, 5]",11.5,,70.0,Green to Orange,Pink to Blue,,,,,652.7000000178814,,,,hwrblsy3h,experiment_VB,,981121,53.0,blocks-exp,
83,275,275,33.0,29.0,,1.0,"[7, 3, 5, 5, 6, 7]","[5, 6, 4, 4, 8, 2]",11.5,,70.0,Green to Orange,Pink to Blue,,,,,875.9000000059605,,,,hwrblsy3h,experiment_VB,,983008,54.0,blocks-exp,
84,276,276,25.0,31.0,,1.0,"[4, 8, 1, 1, 7, 4]","[1, 5, 8, 4, 8, 5]",11.5,,74.0,Green to Orange,Pink to Blue,,,,,1032.4000000059605,,,,hwrblsy3h,experiment_VB,,985051,55.0,blocks-exp,
85,277,277,28.0,18.0,,1.0,"[8, 2, 3, 5, 2, 8]","[2, 5, 3, 1, 1, 6]",11.5,,70.0,Green to Orange,Pink to Blue,,,,,1231.9000000059605,,,,hwrblsy3h,experiment_VB,,987292,56.0,blocks-exp,
86,278,278,25.0,21.0,,1.0,"[2, 1, 2, 8, 7, 5]","[4, 2, 8, 3, 2, 2]",11.5,,70.0,Green to Orange,Pink to Blue,,,,,623.5999999940395,,,,hwrblsy3h,experiment_VB,,988924,57.0,blocks-exp,
87,279,279,28.0,37.0,,1.0,"[2, 4, 1, 5, 8, 8]","[5, 7, 8, 7, 3, 7]",11.5,,74.0,Green to Orange,Pink to Blue,,,,,882.3000000119209,,,,hwrblsy3h,experiment_VB,,990815,58.0,blocks-exp,
88,280,280,34.0,24.0,,1.0,"[6, 6, 6, 2, 8, 6]","[5, 6, 6, 1, 2, 4]",11.5,,70.0,Green to Orange,Pink to Blue,,,,,672.1999999880791,,,,hwrblsy3h,experiment_VB,,992499,59.0,blocks-exp,
89,281,281,21.0,34.0,,1.0,"[3, 3, 2, 6, 5, 2]","[4, 4, 8, 6, 4, 8]",11.5,,74.0,Green to Orange,Pink to Blue,,,,,814.8999999761581,,,,hwrblsy3h,experiment_VB,,994327,60.0,blocks-exp,
90,282,282,25.0,30.0,,1.0,"[5, 2, 5, 8, 3, 2]","[8, 5, 4, 8, 2, 3]",11.5,,74.0,Green to Orange,Pink to Blue,,,,,784.5999999940395,,,,hwrblsy3h,experiment_VB,,996121,61.0,blocks-exp,
91,283,283,26.0,30.0,,1.0,"[6, 3, 5, 2, 3, 7]","[1, 6, 5, 7, 3, 8]",11.5,,74.0,Green to Orange,Pink to Blue,,,,,762.7000000178814,,,,hwrblsy3h,experiment_VB,,997897,62.0,blocks-exp,
92,284,284,31.0,23.0,,0.0,"[3, 7, 4, 6, 4, 7]","[2, 1, 1, 5, 6, 8]",11.5,,74.0,Green to Orange,Pink to Blue,,,,,599.7000000178814,,,,hwrblsy3h,experiment_VB,,999506,63.0,blocks-exp,
93,285,285,27.0,30.0,,1.0,"[2, 4, 2, 4, 8, 7]","[5, 5, 1, 8, 7, 4]",11.5,,74.0,Green to Orange,Pink to Blue,,,,,747.5,,,,hwrblsy3h,experiment_VB,,1001264,64.0,blocks-exp,
94,286,286,27.0,23.0,,1.0,"[5, 2, 6, 4, 7, 3]","[1, 4, 5, 1, 4, 8]",11.5,,70.0,Green to Orange,Pink to Blue,,,,,1738.2000000178814,,,,hwrblsy3h,experiment_VB,,1004016,65.0,blocks-exp,
95,287,287,26.0,31.0,,1.0,"[4, 8, 8, 3, 2, 1]","[7, 5, 8, 3, 7, 1]",11.5,,74.0,Green to Orange,Pink to Blue,,,,,1009.0999999940396,,,,hwrblsy3h,experiment_VB,,1006031,66.0,blocks-exp,
96,288,288,32.0,18.0,,1.0,"[8, 6, 1, 4, 6, 7]","[1, 2, 4, 2, 5, 4]",11.5,,70.0,Green to Orange,Pink to Blue,,,,,872.5,,,,hwrblsy3h,experiment_VB,,1007916,67.0,blocks-exp,
97,289,289,25.0,35.0,,1.0,"[2, 7, 3, 3, 7, 3]","[2, 8, 6, 4, 8, 7]",11.5,,74.0,Green to Orange,Pink to Blue,,,,,832.0,,,,hwrblsy3h,experiment_VB,,1009757,68.0,blocks-exp,
98,290,290,25.0,22.0,,0.0,"[3, 4, 3, 8, 5, 2]","[4, 3, 2, 6, 1, 6]",11.5,,74.0,Green to Orange,Pink to Blue,,,,,1484.0999999940395,,,,hwrblsy3h,experiment_VB,,1012253,69.0,blocks-exp,
99,291,291,14.0,31.0,,1.0,"[1, 1, 3, 5, 1, 3]","[6, 5, 6, 1, 6, 7]",11.5,,74.0,Green to Orange,Pink to Blue,,,,,638.2000000178814,,,,hwrblsy3h,experiment_VB,,1013908,70.0,blocks-exp,
100,292,292,29.0,29.0,,0.0,"[1, 6, 3, 8, 7, 4]","[7, 4, 7, 6, 4, 1]",11.5,,70.0,Green to Orange,Pink to Blue,,,,,1595.7000000178814,,,,hwrblsy3h,experiment_VB,,1016514,71.0,blocks-exp,
101,293,293,28.0,32.0,,1.0,"[3, 6, 3, 4, 8, 4]","[5, 8, 2, 6, 5, 6]",11.5,,74.0,Green to Orange,Pink to Blue,,,,,759.7999999821186,,,,hwrblsy3h,experiment_VB,,1018286,72.0,blocks-exp,
102,294,294,26.0,26.0,,0.0,"[2, 1, 8, 8, 6, 1]","[5, 4, 2, 4, 3, 8]",11.5,,70.0,Green to Orange,Pink to Blue,,,,,703.6999999880791,,,,hwrblsy3h,experiment_VB,,1019999,73.0,blocks-exp,
103,295,295,23.0,34.0,,1.0,"[5, 7, 2, 1, 3, 5]","[5, 7, 1, 6, 8, 7]",11.5,,74.0,Green to Orange,Pink to Blue,,,,,822.5999999940395,,,,hwrblsy3h,experiment_VB,,1021832,74.0,blocks-exp,
104,296,296,22.0,32.0,,1.0,"[1, 3, 6, 2, 3, 7]","[6, 2, 5, 3, 8, 8]",11.5,,74.0,Green to Orange,Pink to Blue,,,,,968.6999999880792,,,,hwrblsy3h,experiment_VB,,1023811,75.0,blocks-exp,
105,297,297,25.0,24.0,,1.0,"[3, 6, 5, 6, 1, 4]","[2, 3, 2, 4, 6, 7]",11.5,,70.0,Green to Orange,Pink to Blue,,,,,1204.300000011921,,,,hwrblsy3h,experiment_VB,,1026029,76.0,blocks-exp,
106,298,298,17.0,27.0,,1.0,"[1, 2, 1, 3, 6, 4]","[2, 6, 4, 4, 4, 7]",11.5,,74.0,Green to Orange,Pink to Blue,,,,,671.0,,,,hwrblsy3h,experiment_VB,,1027706,77.0,blocks-exp,
107,299,299,30.0,25.0,,1.0,"[3, 6, 6, 8, 6, 1]","[3, 8, 2, 3, 6, 3]",11.5,,70.0,Green to Orange,Pink to Blue,,,,,515.7000000178814,,,,hwrblsy3h,experiment_VB,,1029233,78.0,blocks-exp,
108,300,300,25.0,30.0,,1.0,"[2, 5, 6, 4, 1, 7]","[7, 6, 1, 7, 7, 2]",11.5,,74.0,Green to Orange,Pink to Blue,,,,,704.7999999821186,,,,hwrblsy3h,experiment_VB,,1030951,79.0,blocks-exp,
109,301,301,30.0,22.0,,0.0,"[6, 1, 8, 4, 4, 7]","[1, 2, 5, 7, 4, 3]",11.5,,74.0,Green to Orange,Pink to Blue,,,,,561.0,,,,hwrblsy3h,experiment_VB,,1032524,80.0,blocks-exp,
110,302,302,32.0,30.0,,0.0,"[8, 2, 1, 5, 8, 8]","[3, 5, 7, 3, 4, 8]",11.5,,74.0,Green to Orange,Pink to Blue,,,,,955.2000000178814,,,,hwrblsy3h,experiment_VB,,1034492,81.0,blocks-exp,
111,303,303,24.0,19.0,,0.0,"[5, 4, 6, 4, 2, 3]","[5, 1, 4, 1, 6, 2]",11.5,,74.0,Green to Orange,Pink to Blue,,,,,859.8000000119209,,,,hwrblsy3h,experiment_VB,,1036367,82.0,blocks-exp,
112,304,304,19.0,25.0,,1.0,"[3, 1, 1, 5, 5, 4]","[5, 6, 4, 7, 1, 2]",11.5,,74.0,Green to Orange,Pink to Blue,,,,,649.4000000059605,,,,hwrblsy3h,experiment_VB,,1038028,83.0,blocks-exp,
113,305,305,23.0,18.0,,1.0,"[5, 3, 3, 4, 7, 1]","[3, 1, 4, 1, 2, 7]",11.5,,70.0,Green to Orange,Pink to Blue,,,,,1002.5999999940396,,,,hwrblsy3h,experiment_VB,,1040042,84.0,blocks-exp,
114,306,306,31.0,27.0,,1.0,"[4, 8, 2, 4, 6, 7]","[6, 5, 3, 3, 4, 6]",11.5,,70.0,Green to Orange,Pink to Blue,,,,,826.2999999821186,,,,hwrblsy3h,experiment_VB,,1041878,85.0,blocks-exp,
115,307,307,31.0,22.0,,1.0,"[1, 8, 7, 2, 5, 8]","[2, 4, 2, 5, 6, 3]",11.5,,70.0,Green to Orange,Pink to Blue,,,,,609.3999999761581,,,,hwrblsy3h,experiment_VB,,1043496,86.0,blocks-exp,
116,308,308,23.0,19.0,,1.0,"[4, 4, 3, 1, 8, 3]","[1, 8, 2, 1, 2, 5]",11.5,,70.0,Green to Orange,Pink to Blue,,,,,925.399999976158,,,,hwrblsy3h,experiment_VB,,1045431,87.0,blocks-exp,
117,309,309,34.0,31.0,,1.0,"[7, 6, 6, 2, 7, 6]","[2, 5, 2, 8, 8, 6]",11.5,,70.0,Green to Orange,Pink to Blue,,,,,577.5999999940395,,,,hwrblsy3h,experiment_VB,,1047020,88.0,blocks-exp,
118,310,310,31.0,34.0,,1.0,"[6, 4, 8, 2, 3, 8]","[1, 2, 8, 8, 7, 8]",11.5,,74.0,Green to Orange,Pink to Blue,,,,,765.5999999940395,,,,hwrblsy3h,experiment_VB,,1048796,89.0,blocks-exp,
119,311,311,22.0,39.0,,1.0,"[5, 1, 4, 3, 4, 5]","[7, 8, 3, 8, 5, 8]",11.5,,74.0,Green to Orange,Pink to Blue,,,,,792.8000000119209,,,,hwrblsy3h,experiment_VB,,1050601,90.0,blocks-exp,
120,312,312,31.0,20.0,,1.0,"[7, 3, 7, 8, 4, 2]","[1, 6, 4, 3, 3, 3]",11.5,,70.0,Green to Orange,Pink to Blue,,,,,607.5,,,,hwrblsy3h,experiment_VB,,1052215,91.0,blocks-exp,
121,313,313,29.0,34.0,,0.0,"[5, 1, 7, 6, 6, 4]","[8, 7, 6, 4, 3, 6]",11.5,,70.0,Green to Orange,Pink to Blue,,,,,1064.800000011921,,,,hwrblsy3h,experiment_VB,,1054290,92.0,blocks-exp,
122,314,314,32.0,29.0,,1.0,"[8, 5, 7, 3, 1, 8]","[3, 7, 6, 4, 3, 6]",11.5,,70.0,Green to Orange,Pink to Blue,,,,,599.6999999880791,,,,hwrblsy3h,experiment_VB,,1055896,93.0,blocks-exp,
123,315,315,35.0,24.0,,1.0,"[8, 3, 8, 5, 8, 3]","[3, 8, 5, 5, 2, 1]",11.5,,70.0,Green to Orange,Pink to Blue,,,,,666.5999999940395,,,,hwrblsy3h,experiment_VB,,1057573,94.0,blocks-exp,
124,316,316,36.0,29.0,,1.0,"[8, 5, 6, 6, 8, 3]","[3, 5, 7, 3, 8, 3]",11.5,,70.0,Green to Orange,Pink to Blue,,,,,627.6000000238419,,,,hwrblsy3h,experiment_VB,,1059210,95.0,blocks-exp,
125,317,317,18.0,20.0,,0.0,"[1, 3, 2, 3, 1, 8]","[2, 5, 4, 2, 4, 3]",11.5,,70.0,Green to Orange,Pink to Blue,,,,,881.7000000178814,,,,hwrblsy3h,experiment_VB,,1061114,96.0,blocks-exp,
126,318,318,29.0,21.0,,1.0,"[3, 5, 4, 4, 8, 5]","[2, 6, 1, 2, 8, 2]",11.5,,70.0,Green to Orange,Pink to Blue,,,,,1840.0,,,,hwrblsy3h,experiment_VB,,1063964,97.0,blocks-exp,
127,319,319,29.0,20.0,,1.0,"[2, 7, 1, 6, 5, 8]","[4, 6, 3, 3, 1, 3]",11.5,,70.0,Green to Orange,Pink to Blue,,,,,617.7000000178814,,,,hwrblsy3h,experiment_VB,,1065591,98.0,blocks-exp,
128,320,320,31.0,18.0,,1.0,"[8, 7, 4, 2, 8, 2]","[3, 8, 1, 4, 1, 1]",11.5,,70.0,Green to Orange,Pink to Blue,,,,,540.5,,,,hwrblsy3h,experiment_VB,,1067139,99.0,blocks-exp,
129,321,321,19.0,25.0,,1.0,"[2, 2, 2, 8, 1, 4]","[8, 7, 1, 3, 5, 1]",11.5,,74.0,Green to Orange,Pink to Blue,,,,,805.9000000059605,,,,hwrblsy3h,experiment_VB,,1068957,100.0,blocks-exp,
130,322,322,35.0,31.0,,1.0,"[7, 2, 8, 7, 8, 3]","[1, 8, 8, 4, 7, 3]",11.5,,70.0,Green to Orange,Pink to Blue,,,,,519.8000000119209,,,,hwrblsy3h,experiment_VB,,1070486,101.0,blocks-exp,
131,323,323,31.0,20.0,,1.0,"[3, 8, 4, 4, 6, 6]","[2, 1, 8, 4, 1, 4]",11.5,,70.0,Green to Orange,Pink to Blue,,,,,852.1000000238419,,,,hwrblsy3h,experiment_VB,,1072347,102.0,blocks-exp,
132,324,324,28.0,24.0,,1.0,"[6, 8, 3, 6, 1, 4]","[4, 1, 8, 1, 5, 5]",11.5,,70.0,Green to Orange,Pink to Blue,,,,,683.2000000178814,,,,hwrblsy3h,experiment_VB,,1074041,103.0,blocks-exp,
133,325,325,30.0,21.0,,1.0,"[3, 5, 3, 6, 7, 6]","[2, 3, 1, 5, 2, 8]",11.5,,70.0,Green to Orange,Pink to Blue,,,,,611.3000000119209,,,,hwrblsy3h,experiment_VB,,1075664,104.0,blocks-exp,
134,326,326,30.0,24.0,,1.0,"[5, 3, 7, 7, 7, 1]","[6, 5, 2, 1, 3, 7]",11.5,,70.0,Green to Orange,Pink to Blue,,,,,603.2999999821186,,,,hwrblsy3h,experiment_VB,,1077275,105.0,blocks-exp,
135,327,327,27.0,31.0,,0.0,"[4, 5, 5, 4, 8, 1]","[8, 6, 4, 2, 6, 5]",11.5,,70.0,Green to Orange,Pink to Blue,,,,,1262.9000000059605,,,,hwrblsy3h,experiment_VB,,1079551,106.0,blocks-exp,
136,328,328,27.0,26.0,,0.0,"[8, 7, 3, 3, 3, 3]","[7, 1, 1, 6, 5, 6]",11.5,,74.0,Green to Orange,Pink to Blue,,,,,830.6999999880791,,,,hwrblsy3h,experiment_VB,,1081391,107.0,blocks-exp,
137,329,329,32.0,26.0,,1.0,"[6, 3, 5, 7, 4, 7]","[2, 5, 1, 7, 3, 8]",11.5,,70.0,Green to Orange,Pink to Blue,,,,,1682.699999988079,,,,hwrblsy3h,experiment_VB,,1084096,108.0,blocks-exp,
138,330,330,20.0,26.0,,1.0,"[6, 3, 3, 1, 6, 1]","[8, 6, 6, 4, 1, 1]",11.5,,74.0,Green to Orange,Pink to Blue,,,,,4322.5,,,,hwrblsy3h,experiment_VB,,1089425,109.0,blocks-exp,
139,331,331,25.0,29.0,,1.0,"[5, 6, 2, 3, 8, 1]","[4, 1, 5, 6, 6, 7]",11.5,,74.0,Green to Orange,Pink to Blue,,,,,896.5,,,,hwrblsy3h,experiment_VB,,1091335,110.0,blocks-exp,
140,332,332,21.0,29.0,,1.0,"[3, 3, 7, 4, 3, 1]","[5, 1, 6, 4, 5, 8]",11.5,,74.0,Green to Orange,Pink to Blue,,,,,1687.5,,,,hwrblsy3h,experiment_VB,,1094034,111.0,blocks-exp,
141,333,333,22.0,15.0,,1.0,"[3, 7, 3, 2, 6, 1]","[2, 3, 1, 3, 5, 1]",11.5,,70.0,Green to Orange,Pink to Blue,,,,,1146.4000000059605,,,,hwrblsy3h,experiment_VB,,1096188,112.0,blocks-exp,
142,334,334,25.0,28.0,,0.0,"[7, 3, 3, 4, 4, 4]","[1, 8, 5, 3, 6, 5]",11.5,,70.0,Green to Orange,Pink to Blue,,,,,1246.4000000059605,,,,hwrblsy3h,experiment_VB,,1098446,113.0,blocks-exp,
143,335,335,32.0,29.0,,0.0,"[6, 8, 8, 1, 4, 5]","[8, 1, 3, 8, 7, 2]",11.5,,74.0,Green to Orange,Pink to Blue,,,,,1025.300000011921,,,,hwrblsy3h,experiment_VB,,1100482,114.0,blocks-exp,
144,336,336,31.0,24.0,,1.0,"[3, 6, 7, 4, 8, 3]","[2, 3, 4, 3, 8, 4]",11.5,,70.0,Green to Orange,Pink to Blue,,,,,931.3000000119208,,,,hwrblsy3h,experiment_VB,,1102418,115.0,blocks-exp,
145,337,337,27.0,28.0,,1.0,"[4, 1, 6, 8, 1, 7]","[2, 3, 5, 2, 8, 8]",11.5,,74.0,Green to Orange,Pink to Blue,,,,,1014.9000000059604,,,,hwrblsy3h,experiment_VB,,1104442,116.0,blocks-exp,
146,338,338,32.0,32.0,,0.0,"[8, 5, 6, 3, 8, 2]","[7, 7, 1, 8, 1, 8]",11.5,,74.0,Green to Orange,Pink to Blue,,,,,898.1999999880791,,,,hwrblsy3h,experiment_VB,,1106352,117.0,blocks-exp,
147,339,339,32.0,27.0,,1.0,"[4, 8, 3, 8, 2, 7]","[5, 8, 5, 1, 6, 2]",11.5,,70.0,Green to Orange,Pink to Blue,,,,,764.7999999821186,,,,hwrblsy3h,experiment_VB,,1108129,118.0,blocks-exp,
148,340,340,25.0,26.0,,1.0,"[4, 5, 2, 7, 4, 3]","[1, 2, 8, 6, 4, 5]",11.5,,74.0,Green to Orange,Pink to Blue,,,,,748.1999999880791,,,,hwrblsy3h,experiment_VB,,1109888,119.0,blocks-exp,
149,341,341,29.0,32.0,,1.0,"[2, 7, 8, 1, 8, 3]","[7, 5, 7, 7, 4, 2]",11.5,,74.0,Green to Orange,Pink to Blue,,,,,1209.7999999821186,,,,hwrblsy3h,experiment_VB,,1112117,120.0,blocks-exp,
150,342,342,29.0,33.0,,1.0,"[5, 6, 6, 1, 7, 4]","[3, 7, 6, 3, 8, 6]",11.5,,74.0,Green to Orange,Pink to Blue,,,,,2594.0,,,,hwrblsy3h,experiment_VB,,1115722,121.0,blocks-exp,
151,343,343,24.0,25.0,,1.0,"[5, 7, 2, 4, 1, 5]","[2, 6, 4, 7, 1, 5]",11.5,,74.0,Green to Orange,Pink to Blue,,,,,2958.0999999940395,,,,hwrblsy3h,experiment_VB,,1119692,122.0,blocks-exp,
152,344,344,28.0,21.0,,1.0,"[5, 8, 8, 2, 1, 4]","[2, 3, 8, 3, 1, 4]",11.5,,70.0,Green to Orange,Pink to Blue,,,,,787.6999999880791,,,,hwrblsy3h,experiment_VB,,1121491,123.0,blocks-exp,
153,345,345,27.0,27.0,,1.0,"[8, 3, 7, 3, 4, 2]","[4, 8, 3, 1, 4, 7]",11.5,,70.0,Green to Orange,Pink to Blue,,,,,2172.0,,,,hwrblsy3h,experiment_VB,,1124674,124.0,blocks-exp,
154,346,346,33.0,28.0,,1.0,"[7, 4, 5, 6, 6, 5]","[2, 3, 7, 4, 8, 4]",11.5,,70.0,Green to Orange,Pink to Blue,,,,,704.5,,,,hwrblsy3h,experiment_VB,,1126391,125.0,blocks-exp,
155,347,347,24.0,35.0,,1.0,"[2, 3, 3, 6, 8, 2]","[5, 2, 8, 6, 7, 7]",11.5,,74.0,Green to Orange,Pink to Blue,,,,,751.2000000178814,,,,hwrblsy3h,experiment_VB,,1128152,126.0,blocks-exp,
156,348,348,20.0,25.0,,1.0,"[5, 1, 1, 6, 2, 5]","[8, 5, 1, 3, 4, 4]",11.5,,74.0,Green to Orange,Pink to Blue,,,,,979.8000000119208,,,,hwrblsy3h,experiment_VB,,1130141,127.0,blocks-exp,
157,349,349,21.0,32.0,,1.0,"[1, 2, 8, 1, 4, 5]","[6, 6, 3, 7, 2, 8]",11.5,,74.0,Green to Orange,Pink to Blue,,,,,759.4000000059605,,,,hwrblsy3h,experiment_VB,,1131907,128.0,blocks-exp,
158,350,350,23.0,24.0,,1.0,"[5, 2, 6, 6, 3, 1]","[5, 1, 4, 8, 2, 4]",11.5,,74.0,Green to Orange,Pink to Blue,,,,,3307.5,,,,hwrblsy3h,experiment_VB,,1136226,129.0,blocks-exp,
159,351,351,22.0,17.0,,1.0,"[1, 8, 4, 5, 2, 2]","[2, 7, 5, 1, 1, 1]",11.5,,70.0,Green to Orange,Pink to Blue,,,,,1243.0999999940395,,,,hwrblsy3h,experiment_VB,,1138477,130.0,blocks-exp,
160,352,352,36.0,24.0,,1.0,"[3, 8, 5, 8, 5, 7]","[3, 8, 8, 1, 1, 3]",11.5,,70.0,Green to Orange,Pink to Blue,,,,,664.4000000059605,,,,hwrblsy3h,experiment_VB,,1140158,131.0,blocks-exp,
161,353,353,19.0,27.0,,1.0,"[6, 4, 3, 1, 3, 2]","[7, 4, 5, 2, 7, 2]",11.5,,74.0,Green to Orange,Pink to Blue,,,,,1102.800000011921,,,,hwrblsy3h,experiment_VB,,1142274,132.0,blocks-exp,
162,354,354,25.0,22.0,,1.0,"[2, 6, 8, 1, 3, 5]","[5, 4, 3, 2, 2, 6]",11.5,,70.0,Green to Orange,Pink to Blue,,,,,1139.9000000059605,,,,hwrblsy3h,experiment_VB,,1144424,133.0,blocks-exp,
163,355,355,15.0,28.0,,1.0,"[5, 3, 1, 2, 3, 1]","[8, 6, 4, 3, 3, 4]",11.5,,74.0,Green to Orange,Pink to Blue,,,,,741.4000000059605,,,,hwrblsy3h,experiment_VB,,1146174,134.0,blocks-exp,
164,356,356,26.0,26.0,,1.0,"[8, 5, 4, 5, 2, 2]","[6, 5, 2, 8, 1, 4]",11.5,,74.0,Green to Orange,Pink to Blue,,,,,1119.5,,,,hwrblsy3h,experiment_VB,,1148305,135.0,blocks-exp,
165,357,357,28.0,26.0,,1.0,"[6, 7, 2, 8, 1, 4]","[3, 8, 3, 1, 5, 6]",11.5,,70.0,Green to Orange,Pink to Blue,,,,,599.5,,,,hwrblsy3h,experiment_VB,,1149915,136.0,blocks-exp,
166,358,358,15.0,22.0,,1.0,"[3, 1, 2, 1, 7, 1]","[8, 2, 4, 6, 1, 1]",11.5,,74.0,Green to Orange,Pink to Blue,,,,,651.6999999880791,,,,hwrblsy3h,experiment_VB,,1151576,137.0,blocks-exp,
167,359,359,23.0,20.0,,1.0,"[7, 8, 1, 4, 1, 2]","[2, 2, 6, 4, 2, 4]",11.5,,70.0,Green to Orange,Pink to Blue,,,,,674.1000000238419,,,,hwrblsy3h,experiment_VB,,1153257,138.0,blocks-exp,
168,360,360,27.0,26.0,,0.0,"[8, 6, 6, 2, 4, 1]","[3, 8, 2, 3, 7, 3]",11.5,,74.0,Green to Orange,Pink to Blue,,,,,1134.7000000178814,,,,hwrblsy3h,experiment_VB,,1155404,139.0,blocks-exp,
169,361,361,22.0,30.0,,1.0,"[1, 6, 4, 1, 6, 4]","[3, 4, 8, 3, 4, 8]",11.5,,74.0,Green to Orange,Pink to Blue,,,,,874.2000000178814,,,,hwrblsy3h,experiment_VB,,1157291,140.0,blocks-exp,
170,362,362,26.0,32.0,,1.0,"[6, 6, 1, 8, 2, 3]","[6, 8, 2, 7, 4, 5]",11.5,,74.0,Green to Orange,Pink to Blue,,,,,855.8999999761581,,,,hwrblsy3h,experiment_VB,,1159160,141.0,blocks-exp,
171,363,363,29.0,35.0,,1.0,"[8, 8, 2, 1, 7, 3]","[7, 4, 4, 7, 8, 5]",11.5,,74.0,Green to Orange,Pink to Blue,,,,,1195.7999999821186,,,,hwrblsy3h,experiment_VB,,1161366,142.0,blocks-exp,
172,364,364,29.0,30.0,,1.0,"[5, 2, 7, 8, 5, 2]","[3, 4, 4, 3, 8, 8]",11.5,,74.0,Green to Orange,Pink to Blue,,,,,779.3000000119209,,,,hwrblsy3h,experiment_VB,,1163159,143.0,blocks-exp,
173,365,365,22.0,35.0,,1.0,"[1, 7, 1, 5, 7, 1]","[8, 2, 3, 6, 8, 8]",11.5,,74.0,Green to Orange,Pink to Blue,,,,,1211.800000011921,,,,hwrblsy3h,experiment_VB,,1165383,144.0,blocks-exp,
174,366,366,29.0,28.0,,0.0,"[8, 5, 4, 4, 4, 4]","[3, 7, 7, 8, 1, 2]",11.5,,74.0,Green to Orange,Pink to Blue,,,,,978.1999999880792,,,,hwrblsy3h,experiment_VB,,1167374,145.0,blocks-exp,
175,367,367,29.0,25.0,,1.0,"[6, 5, 5, 4, 3, 6]","[2, 3, 7, 4, 2, 7]",11.5,,70.0,Green to Orange,Pink to Blue,,,,,2156.699999988079,,,,hwrblsy3h,experiment_VB,,1170544,146.0,blocks-exp,
176,368,368,25.0,18.0,,1.0,"[7, 5, 5, 1, 5, 2]","[1, 5, 7, 1, 2, 2]",11.5,,70.0,Green to Orange,Pink to Blue,,,,,856.5,,,,hwrblsy3h,experiment_VB,,1172410,147.0,blocks-exp,
177,369,369,33.0,27.0,,1.0,"[6, 8, 5, 2, 4, 8]","[2, 2, 5, 7, 5, 6]",11.5,,70.0,Green to Orange,Pink to Blue,,,,,869.3000000119209,,,,hwrblsy3h,experiment_VB,,1174288,148.0,blocks-exp,
178,370,370,27.0,21.0,,0.0,"[7, 2, 2, 3, 8, 5]","[6, 4, 2, 1, 7, 1]",11.5,,74.0,Green to Orange,Pink to Blue,,,,,3302.5,,,,hwrblsy3h,experiment_VB,,1178601,149.0,blocks-exp,
179,371,371,29.0,31.0,,1.0,"[6, 3, 5, 3, 8, 4]","[7, 4, 3, 3, 6, 8]",11.5,,74.0,Green to Orange,Pink to Blue,,,,,2144.699999988079,,,,hwrblsy3h,experiment_VB,,1181759,150.0,blocks-exp,
180,387,2,38.0,31.0,,0.0,"[8, 5, 7, 7, 5, 6]","[7, 8, 2, 2, 6, 6]",12.25,,74.0,Pink to Blue,Green to Orange,,,,,1578.600000023842,,,,ua60hkvff,training_VB,,49993,1.0,blocks,
181,388,3,15.0,31.0,,0.0,"[2, 2, 2, 3, 4, 2]","[7, 6, 7, 1, 7, 3]",12.25,,70.0,Pink to Blue,Green to Orange,,,,,1588.600000023842,,,,ua60hkvff,training_VB,,53588,2.0,blocks,
182,389,4,28.0,36.0,,1.0,"[1, 6, 6, 8, 4, 3]","[6, 8, 7, 6, 2, 7]",12.25,,74.0,Pink to Blue,Green to Orange,,,,,1629.199999988079,,,,ua60hkvff,training_VB,,57227,3.0,blocks,
183,390,5,25.0,16.0,,1.0,"[6, 2, 2, 2, 8, 5]","[1, 4, 2, 5, 2, 2]",12.25,,70.0,Pink to Blue,Green to Orange,,,,,883.8999999761581,,,,ua60hkvff,training_VB,,60116,4.0,blocks,
184,391,6,19.0,26.0,,1.0,"[1, 8, 2, 2, 5, 1]","[1, 2, 2, 6, 7, 8]",12.25,,74.0,Pink to Blue,Green to Orange,,,,,1624.199999988079,,,,ua60hkvff,training_VB,,63746,5.0,blocks,
185,392,7,24.0,25.0,,1.0,"[4, 1, 5, 8, 4, 2]","[1, 7, 4, 8, 1, 4]",12.25,,74.0,Pink to Blue,Green to Orange,,,,,4433.400000035763,,,,ua60hkvff,training_VB,,70184,6.0,blocks,
186,393,8,26.0,28.0,,1.0,"[7, 1, 7, 4, 2, 5]","[5, 1, 5, 7, 3, 7]",12.25,,74.0,Pink to Blue,Green to Orange,,,,,2998.100000023842,,,,ua60hkvff,training_VB,,75188,7.0,blocks,
187,394,9,19.0,23.0,,1.0,"[1, 1, 2, 7, 2, 6]","[2, 3, 1, 8, 6, 3]",12.25,,74.0,Pink to Blue,Green to Orange,,,,,1643.899999976158,,,,ua60hkvff,training_VB,,78837,8.0,blocks,
188,395,10,36.0,29.0,,1.0,"[6, 7, 8, 3, 4, 8]","[4, 3, 8, 8, 5, 1]",12.25,,70.0,Pink to Blue,Green to Orange,,,,,1319.100000023842,,,,ua60hkvff,training_VB,,82161,9.0,blocks,
189,396,11,26.0,37.0,,1.0,"[6, 1, 1, 7, 4, 7]","[7, 7, 8, 7, 6, 2]",12.25,,74.0,Pink to Blue,Green to Orange,,,,,1051.399999976158,,,,ua60hkvff,training_VB,,85221,10.0,blocks,
190,397,12,33.0,29.0,,1.0,"[1, 8, 8, 3, 6, 7]","[1, 6, 6, 4, 7, 5]",12.25,,70.0,Pink to Blue,Green to Orange,,,,,843.5,,,,ua60hkvff,training_VB,,88068,11.0,blocks,
191,398,13,33.0,34.0,,0.0,"[4, 7, 7, 4, 4, 7]","[6, 2, 5, 8, 6, 7]",12.25,,70.0,Pink to Blue,Green to Orange,,,,,1372.100000023842,,,,ua60hkvff,training_VB,,91448,12.0,blocks,
192,399,14,33.0,27.0,,1.0,"[7, 6, 2, 5, 7, 6]","[1, 3, 4, 5, 7, 7]",12.25,,70.0,Pink to Blue,Green to Orange,,,,,4173.5,,,,ua60hkvff,training_VB,,97627,13.0,blocks,
193,400,15,30.0,22.0,,1.0,"[7, 2, 2, 7, 4, 8]","[2, 8, 4, 1, 1, 6]",12.25,,70.0,Pink to Blue,Green to Orange,,,,,1620.899999976158,,,,ua60hkvff,training_VB,,101253,14.0,blocks,
194,401,16,27.0,24.0,,1.0,"[1, 6, 7, 8, 1, 4]","[2, 2, 8, 5, 3, 4]",12.25,,70.0,Pink to Blue,Green to Orange,,,,,889.1999999880791,,,,ua60hkvff,training_VB,,104147,15.0,blocks,
195,402,17,17.0,23.0,,1.0,"[6, 1, 2, 2, 5, 1]","[7, 1, 5, 5, 4, 1]",12.25,,74.0,Pink to Blue,Green to Orange,,,,,1275.600000023842,,,,ua60hkvff,training_VB,,107442,16.0,blocks,
196,403,18,28.0,26.0,,1.0,"[5, 7, 4, 7, 3, 2]","[5, 1, 2, 4, 6, 8]",12.25,,70.0,Pink to Blue,Green to Orange,,,,,1839.800000011921,,,,ua60hkvff,training_VB,,111294,17.0,blocks,
197,404,19,38.0,28.0,,1.0,"[5, 6, 7, 4, 8, 8]","[5, 7, 3, 5, 3, 5]",12.25,,70.0,Pink to Blue,Green to Orange,,,,,982.100000023842,,,,ua60hkvff,training_VB,,114291,18.0,blocks,
198,405,20,33.0,31.0,,1.0,"[4, 3, 8, 7, 6, 5]","[3, 7, 6, 3, 6, 6]",12.25,,70.0,Pink to Blue,Green to Orange,,,,,3368.800000011921,,,,ua60hkvff,training_VB,,119665,19.0,blocks,
199,406,21,28.0,24.0,,1.0,"[5, 6, 6, 4, 5, 2]","[3, 5, 6, 1, 4, 5]",12.25,,70.0,Pink to Blue,Green to Orange,,,,,1728.699999988079,,,,ua60hkvff,training_VB,,123398,20.0,blocks,
200,407,22,16.0,29.0,,1.0,"[4, 1, 2, 6, 2, 1]","[3, 7, 3, 1, 8, 7]",12.25,,74.0,Pink to Blue,Green to Orange,,,,,1227.5,,,,ua60hkvff,training_VB,,126631,21.0,blocks,
201,408,23,39.0,27.0,,1.0,"[8, 8, 4, 4, 8, 7]","[1, 5, 7, 6, 2, 6]",12.25,,70.0,Pink to Blue,Green to Orange,,,,,931.5999999642372,,,,ua60hkvff,training_VB,,129567,22.0,blocks,
202,409,24,15.0,27.0,,1.0,"[1, 1, 2, 7, 2, 2]","[5, 7, 4, 6, 2, 3]",12.25,,74.0,Pink to Blue,Green to Orange,,,,,774.3000000119209,,,,ua60hkvff,training_VB,,132346,23.0,blocks,
203,410,25,26.0,22.0,,1.0,"[3, 3, 4, 7, 4, 5]","[4, 5, 2, 1, 7, 3]",12.25,,70.0,Pink to Blue,Green to Orange,,,,,4544.900000035763,,,,ua60hkvff,training_VB,,138899,24.0,blocks,
204,411,26,21.0,22.0,,0.0,"[4, 1, 4, 2, 4, 6]","[2, 3, 2, 5, 4, 6]",12.25,,70.0,Pink to Blue,Green to Orange,,,,,895.1999999880791,,,,ua60hkvff,training_VB,,141807,25.0,blocks,
205,412,27,27.0,26.0,,1.0,"[2, 4, 5, 7, 5, 4]","[1, 2, 7, 2, 8, 6]",12.25,,70.0,Pink to Blue,Green to Orange,,,,,1446.0,,,,ua60hkvff,training_VB,,145269,26.0,blocks,
206,413,28,30.0,24.0,,1.0,"[4, 8, 6, 2, 2, 8]","[1, 7, 5, 6, 2, 3]",12.25,,70.0,Pink to Blue,Green to Orange,,,,,1702.899999976158,,,,ua60hkvff,training_VB,,148976,27.0,blocks,
207,414,29,25.0,30.0,,1.0,"[2, 3, 3, 7, 8, 2]","[8, 3, 3, 8, 7, 1]",12.25,,74.0,Pink to Blue,Green to Orange,,,,,2673.200000047684,,,,ua60hkvff,training_VB,,153655,28.0,blocks,
208,415,30,30.0,26.0,,1.0,"[3, 8, 6, 2, 8, 3]","[8, 3, 6, 6, 1, 2]",12.25,,70.0,Pink to Blue,Green to Orange,,,,,1487.199999988079,,,,ua60hkvff,training_VB,,157148,29.0,blocks,
209,416,31,28.0,14.0,,1.0,"[2, 7, 2, 6, 6, 5]","[2, 1, 6, 1, 2, 2]",12.25,,70.0,Pink to Blue,Green to Orange,,,,,1019.100000023842,,,,ua60hkvff,training_VB,,160173,30.0,blocks,
210,417,32,28.0,26.0,,1.0,"[3, 8, 3, 2, 7, 5]","[2, 5, 3, 5, 3, 8]",12.25,,70.0,Pink to Blue,Green to Orange,,,,,1000.5,,,,ua60hkvff,experiment_VB,,207995,1.0,blocks-exp,
211,418,33,30.0,24.0,,0.0,"[8, 4, 4, 7, 2, 5]","[2, 6, 6, 5, 1, 4]",12.25,,74.0,Pink to Blue,Green to Orange,,,,,1329.0,,,,ua60hkvff,experiment_VB,,210328,2.0,blocks-exp,
212,419,34,16.0,24.0,,1.0,"[5, 1, 5, 1, 2, 2]","[1, 6, 3, 1, 6, 7]",12.25,,74.0,Pink to Blue,Green to Orange,,,,,1203.399999976158,,,,ua60hkvff,experiment_VB,,212536,3.0,blocks-exp,
213,420,35,26.0,27.0,,1.0,"[4, 4, 5, 3, 8, 2]","[3, 4, 2, 7, 6, 5]",12.25,,74.0,Pink to Blue,Green to Orange,,,,,6579.900000035763,,,,ua60hkvff,experiment_VB,,220120,4.0,blocks-exp,
214,421,36,29.0,24.0,,1.0,"[8, 7, 1, 5, 6, 2]","[2, 2, 3, 5, 4, 8]",12.25,,70.0,Pink to Blue,Green to Orange,,,,,1025.800000011921,,,,ua60hkvff,experiment_VB,,222163,5.0,blocks-exp,
215,422,37,35.0,24.0,,1.0,"[5, 6, 1, 7, 8, 8]","[2, 7, 2, 5, 6, 2]",12.25,,70.0,Pink to Blue,Green to Orange,,,,,906.5,,,,ua60hkvff,experiment_VB,,224074,6.0,blocks-exp,
216,423,38,29.0,21.0,,1.0,"[7, 6, 8, 3, 1, 4]","[4, 4, 1, 3, 6, 3]",12.25,,70.0,Pink to Blue,Green to Orange,,,,,831.9000000357628,,,,ua60hkvff,experiment_VB,,225915,7.0,blocks-exp,
217,424,39,35.0,22.0,,1.0,"[4, 7, 7, 8, 2, 7]","[2, 1, 2, 7, 8, 2]",12.25,,70.0,Pink to Blue,Green to Orange,,,,,1148.0,,,,ua60hkvff,experiment_VB,,228066,8.0,blocks-exp,
218,425,40,28.0,22.0,,1.0,"[7, 4, 6, 1, 3, 7]","[1, 6, 1, 5, 4, 5]",12.25,,70.0,Pink to Blue,Green to Orange,,,,,2428.900000035763,,,,ua60hkvff,experiment_VB,,231512,9.0,blocks-exp,
219,426,41,19.0,20.0,,1.0,"[1, 5, 3, 6, 2, 2]","[5, 1, 4, 4, 2, 4]",12.25,,74.0,Pink to Blue,Green to Orange,,,,,3040.300000011921,,,,ua60hkvff,experiment_VB,,235557,10.0,blocks-exp,
220,427,42,29.0,32.0,,1.0,"[5, 2, 4, 7, 7, 4]","[5, 5, 8, 7, 1, 6]",12.25,,74.0,Pink to Blue,Green to Orange,,,,,1478.600000023842,,,,ua60hkvff,experiment_VB,,238045,11.0,blocks-exp,
221,428,43,35.0,30.0,,0.0,"[7, 3, 8, 8, 3, 6]","[7, 8, 6, 3, 1, 5]",12.25,,74.0,Pink to Blue,Green to Orange,,,,,983.0,,,,ua60hkvff,experiment_VB,,240033,12.0,blocks-exp,
222,429,44,30.0,24.0,,1.0,"[6, 6, 3, 7, 3, 5]","[2, 7, 6, 4, 3, 2]",12.25,,70.0,Pink to Blue,Green to Orange,,,,,1386.4000000357628,,,,ua60hkvff,experiment_VB,,242424,13.0,blocks-exp,
223,430,45,27.0,24.0,,1.0,"[7, 3, 5, 5, 2, 5]","[8, 2, 6, 3, 3, 2]",12.25,,70.0,Pink to Blue,Green to Orange,,,,,1811.700000047684,,,,ua60hkvff,experiment_VB,,245240,14.0,blocks-exp,
224,431,46,29.0,35.0,,1.0,"[3, 4, 6, 4, 8, 4]","[7, 6, 4, 4, 6, 8]",12.25,,74.0,Pink to Blue,Green to Orange,,,,,2057.800000011921,,,,ua60hkvff,experiment_VB,,248301,15.0,blocks-exp,
225,432,47,25.0,31.0,,1.0,"[8, 1, 6, 4, 3, 3]","[2, 8, 3, 2, 8, 8]",12.25,,74.0,Pink to Blue,Green to Orange,,,,,1767.600000023842,,,,ua60hkvff,experiment_VB,,251076,16.0,blocks-exp,
226,433,48,24.0,27.0,,1.0,"[2, 2, 6, 2, 7, 5]","[4, 6, 1, 6, 5, 5]",12.25,,74.0,Pink to Blue,Green to Orange,,,,,1309.699999988079,,,,ua60hkvff,experiment_VB,,253389,17.0,blocks-exp,
227,434,49,23.0,34.0,,1.0,"[2, 6, 5, 3, 1, 6]","[2, 7, 8, 5, 6, 6]",12.25,,74.0,Pink to Blue,Green to Orange,,,,,848.6000000238419,,,,ua60hkvff,experiment_VB,,255243,18.0,blocks-exp,
228,435,50,18.0,25.0,,1.0,"[4, 5, 2, 2, 2, 3]","[1, 6, 8, 3, 3, 4]",12.25,,74.0,Pink to Blue,Green to Orange,,,,,2359.0,,,,ua60hkvff,experiment_VB,,258606,19.0,blocks-exp,
229,436,51,41.0,19.0,,1.0,"[6, 8, 8, 6, 6, 7]","[1, 5, 2, 5, 4, 2]",12.25,,70.0,Pink to Blue,Green to Orange,,,,,724.5,,,,ua60hkvff,experiment_VB,,260334,20.0,blocks-exp,
230,437,52,29.0,26.0,,1.0,"[6, 5, 7, 3, 6, 2]","[5, 5, 8, 1, 4, 3]",12.25,,70.0,Pink to Blue,Green to Orange,,,,,1241.699999988079,,,,ua60hkvff,experiment_VB,,262585,21.0,blocks-exp,
231,438,53,26.0,27.0,,1.0,"[1, 6, 5, 4, 3, 7]","[6, 4, 4, 5, 3, 5]",12.25,,74.0,Pink to Blue,Green to Orange,,,,,1550.4000000357628,,,,ua60hkvff,experiment_VB,,265141,22.0,blocks-exp,
232,439,54,34.0,21.0,,1.0,"[7, 6, 8, 5, 6, 2]","[1, 4, 3, 5, 3, 5]",12.25,,70.0,Pink to Blue,Green to Orange,,,,,1030.100000023842,,,,ua60hkvff,experiment_VB,,267188,23.0,blocks-exp,
233,440,55,26.0,25.0,,1.0,"[4, 6, 2, 6, 2, 6]","[6, 2, 7, 8, 1, 1]",12.25,,70.0,Pink to Blue,Green to Orange,,,,,1182.7999999523165,,,,ua60hkvff,experiment_VB,,269389,24.0,blocks-exp,
234,441,56,23.0,29.0,,1.0,"[4, 4, 4, 1, 4, 6]","[8, 6, 6, 6, 1, 2]",12.25,,74.0,Pink to Blue,Green to Orange,,,,,547.3999999761581,,,,ua60hkvff,experiment_VB,,270940,25.0,blocks-exp,
235,442,57,26.0,23.0,,1.0,"[7, 3, 7, 6, 2, 1]","[3, 4, 1, 8, 4, 3]",12.25,,70.0,Pink to Blue,Green to Orange,,,,,893.6999999880791,,,,ua60hkvff,experiment_VB,,272848,26.0,blocks-exp,
236,443,58,16.0,17.0,,0.0,"[1, 2, 1, 6, 5, 1]","[6, 4, 3, 2, 1, 1]",12.25,,70.0,Pink to Blue,Green to Orange,,,,,757.3000000119209,,,,ua60hkvff,experiment_VB,,274609,27.0,blocks-exp,
237,444,59,26.0,26.0,,0.0,"[7, 5, 4, 1, 2, 7]","[1, 6, 3, 7, 4, 5]",12.25,,70.0,Pink to Blue,Green to Orange,,,,,675.3999999761581,,,,ua60hkvff,experiment_VB,,276288,28.0,blocks-exp,
238,445,60,28.0,31.0,,0.0,"[7, 1, 5, 1, 6, 8]","[8, 5, 8, 1, 4, 5]",12.25,,70.0,Pink to Blue,Green to Orange,,,,,1008.8000000119208,,,,ua60hkvff,experiment_VB,,278300,29.0,blocks-exp,
239,446,61,23.0,17.0,,1.0,"[1, 8, 4, 3, 6, 1]","[3, 3, 5, 2, 3, 1]",12.25,,70.0,Pink to Blue,Green to Orange,,,,,1152.899999976158,,,,ua60hkvff,experiment_VB,,280465,30.0,blocks-exp,
240,447,62,29.0,22.0,,1.0,"[3, 8, 6, 2, 5, 5]","[2, 3, 5, 4, 6, 2]",12.25,,70.0,Pink to Blue,Green to Orange,,,,,659.6999999880791,,,,ua60hkvff,experiment_VB,,282129,31.0,blocks-exp,
241,448,63,28.0,27.0,,1.0,"[6, 3, 3, 7, 5, 4]","[5, 1, 4, 3, 6, 8]",12.25,,70.0,Pink to Blue,Green to Orange,,,,,835.1000000238419,,,,ua60hkvff,experiment_VB,,283968,32.0,blocks-exp,
242,449,64,28.0,20.0,,1.0,"[4, 7, 6, 2, 3, 6]","[4, 3, 1, 3, 2, 7]",12.25,,70.0,Pink to Blue,Green to Orange,,,,,683.3999999761581,,,,ua60hkvff,experiment_VB,,285668,33.0,blocks-exp,
243,450,65,27.0,13.0,,1.0,"[6, 4, 5, 3, 5, 4]","[3, 1, 1, 1, 4, 3]",12.25,,70.0,Pink to Blue,Green to Orange,,,,,876.3999999761581,,,,ua60hkvff,experiment_VB,,287549,34.0,blocks-exp,
244,451,66,27.0,27.0,,1.0,"[8, 4, 3, 4, 2, 6]","[3, 6, 3, 5, 4, 6]",12.25,,70.0,Pink to Blue,Green to Orange,,,,,1708.0,,,,ua60hkvff,experiment_VB,,290261,35.0,blocks-exp,
245,452,67,20.0,27.0,,1.0,"[5, 1, 3, 3, 6, 2]","[7, 8, 1, 1, 2, 8]",12.25,,74.0,Pink to Blue,Green to Orange,,,,,1324.199999988079,,,,ua60hkvff,experiment_VB,,292589,36.0,blocks-exp,
246,453,68,24.0,32.0,,1.0,"[1, 7, 6, 2, 6, 2]","[4, 3, 5, 8, 4, 8]",12.25,,74.0,Pink to Blue,Green to Orange,,,,,1293.800000011921,,,,ua60hkvff,experiment_VB,,294888,37.0,blocks-exp,
247,454,69,22.0,26.0,,0.0,"[3, 5, 3, 7, 3, 1]","[4, 3, 4, 4, 3, 8]",12.25,,70.0,Pink to Blue,Green to Orange,,,,,1066.199999988079,,,,ua60hkvff,experiment_VB,,296964,38.0,blocks-exp,
248,455,70,25.0,33.0,,1.0,"[6, 1, 1, 7, 8, 2]","[6, 6, 6, 5, 2, 8]",12.25,,74.0,Pink to Blue,Green to Orange,,,,,887.5999999642372,,,,ua60hkvff,experiment_VB,,298855,39.0,blocks-exp,
249,456,71,26.0,23.0,,1.0,"[4, 7, 5, 6, 3, 1]","[5, 1, 6, 1, 2, 8]",12.25,,70.0,Pink to Blue,Green to Orange,,,,,1198.699999988079,,,,ua60hkvff,experiment_VB,,301061,40.0,blocks-exp,
250,457,72,35.0,30.0,,1.0,"[8, 5, 3, 4, 8, 7]","[6, 6, 8, 7, 1, 2]",12.25,,70.0,Pink to Blue,Green to Orange,,,,,972.9000000357628,,,,ua60hkvff,experiment_VB,,303044,41.0,blocks-exp,
251,458,73,33.0,30.0,,0.0,"[7, 4, 8, 4, 2, 8]","[6, 4, 7, 1, 6, 6]",12.25,,74.0,Pink to Blue,Green to Orange,,,,,1710.300000011921,,,,ua60hkvff,experiment_VB,,305758,42.0,blocks-exp,
252,459,74,33.0,23.0,,1.0,"[5, 4, 7, 4, 8, 5]","[4, 2, 5, 1, 8, 3]",12.25,,70.0,Pink to Blue,Green to Orange,,,,,941.0,,,,ua60hkvff,experiment_VB,,307704,43.0,blocks-exp,
253,460,75,22.0,26.0,,0.0,"[3, 7, 2, 4, 5, 1]","[6, 8, 6, 3, 1, 2]",12.25,,70.0,Pink to Blue,Green to Orange,,,,,1297.300000011921,,,,ua60hkvff,experiment_VB,,310005,44.0,blocks-exp,
254,461,76,22.0,25.0,,1.0,"[2, 1, 8, 2, 8, 1]","[8, 3, 4, 4, 3, 3]",12.25,,74.0,Pink to Blue,Green to Orange,,,,,1192.199999988079,,,,ua60hkvff,experiment_VB,,312202,45.0,blocks-exp,
255,462,77,30.0,26.0,,1.0,"[8, 5, 3, 1, 7, 6]","[3, 1, 8, 6, 7, 1]",12.25,,70.0,Pink to Blue,Green to Orange,,,,,3244.099999964237,,,,ua60hkvff,experiment_VB,,316459,46.0,blocks-exp,
256,463,78,35.0,22.0,,1.0,"[7, 4, 6, 7, 8, 3]","[2, 4, 6, 1, 3, 6]",12.25,,70.0,Pink to Blue,Green to Orange,,,,,1341.0999999642372,,,,ua60hkvff,experiment_VB,,318804,47.0,blocks-exp,
257,464,79,25.0,25.0,,1.0,"[2, 4, 7, 6, 1, 5]","[5, 3, 7, 3, 1, 6]",12.25,,74.0,Pink to Blue,Green to Orange,,,,,2906.0,,,,ua60hkvff,experiment_VB,,322715,48.0,blocks-exp,
258,465,80,31.0,25.0,,1.0,"[1, 4, 6, 6, 7, 7]","[2, 4, 5, 4, 7, 3]",12.25,,70.0,Pink to Blue,Green to Orange,,,,,1494.0,,,,ua60hkvff,experiment_VB,,325213,49.0,blocks-exp,
259,466,81,20.0,17.0,,1.0,"[4, 3, 2, 6, 2, 3]","[1, 4, 1, 2, 2, 7]",12.25,,70.0,Pink to Blue,Green to Orange,,,,,1647.0,,,,ua60hkvff,experiment_VB,,327876,50.0,blocks-exp,
260,467,82,34.0,26.0,,1.0,"[8, 4, 7, 5, 5, 5]","[6, 1, 6, 1, 8, 4]",12.25,,70.0,Pink to Blue,Green to Orange,,,,,1414.4000000357628,,,,ua60hkvff,experiment_VB,,330303,51.0,blocks-exp,
261,468,83,34.0,31.0,,1.0,"[8, 8, 4, 7, 5, 2]","[4, 4, 8, 5, 3, 7]",12.25,,70.0,Pink to Blue,Green to Orange,,,,,1201.0999999642372,,,,ua60hkvff,experiment_VB,,332518,52.0,blocks-exp,
262,469,84,20.0,25.0,,1.0,"[1, 1, 2, 4, 5, 7]","[3, 3, 3, 2, 6, 8]",12.25,,74.0,Pink to Blue,Green to Orange,,,,,1851.399999976158,,,,ua60hkvff,experiment_VB,,335373,53.0,blocks-exp,
263,470,85,28.0,28.0,,0.0,"[1, 6, 8, 5, 5, 3]","[6, 1, 8, 3, 5, 5]",12.25,,70.0,Pink to Blue,Green to Orange,,,,,1906.5,,,,ua60hkvff,experiment_VB,,338284,54.0,blocks-exp,
264,471,86,25.0,30.0,,1.0,"[4, 5, 4, 3, 2, 7]","[4, 5, 2, 7, 6, 6]",12.25,,74.0,Pink to Blue,Green to Orange,,,,,887.1999999880791,,,,ua60hkvff,experiment_VB,,340176,55.0,blocks-exp,
265,472,87,27.0,19.0,,1.0,"[5, 6, 2, 8, 2, 4]","[4, 3, 2, 1, 3, 6]",12.25,,70.0,Pink to Blue,Green to Orange,,,,,1880.0999999642368,,,,ua60hkvff,experiment_VB,,343061,56.0,blocks-exp,
266,473,88,20.0,29.0,,1.0,"[6, 4, 2, 1, 6, 1]","[5, 7, 4, 7, 3, 3]",12.25,,74.0,Pink to Blue,Green to Orange,,,,,1062.699999988079,,,,ua60hkvff,experiment_VB,,345128,57.0,blocks-exp,
267,474,89,26.0,23.0,,1.0,"[3, 5, 3, 5, 7, 3]","[3, 1, 6, 5, 4, 4]",12.25,,70.0,Pink to Blue,Green to Orange,,,,,1651.699999988079,,,,ua60hkvff,experiment_VB,,347783,58.0,blocks-exp,
268,475,90,19.0,36.0,,1.0,"[6, 2, 2, 3, 5, 1]","[4, 8, 8, 1, 7, 8]",12.25,,74.0,Pink to Blue,Green to Orange,,,,,812.1000000238419,,,,ua60hkvff,experiment_VB,,349599,59.0,blocks-exp,
269,476,91,37.0,31.0,,1.0,"[4, 7, 8, 6, 6, 6]","[1, 2, 6, 6, 8, 8]",12.25,,70.0,Pink to Blue,Green to Orange,,,,,1603.4000000357628,,,,ua60hkvff,experiment_VB,,352206,60.0,blocks-exp,
270,477,92,20.0,14.0,,1.0,"[2, 4, 8, 1, 3, 2]","[4, 3, 2, 1, 1, 3]",12.25,,70.0,Pink to Blue,Green to Orange,,,,,946.6999999880792,,,,ua60hkvff,experiment_VB,,354157,61.0,blocks-exp,
271,478,93,26.0,24.0,,1.0,"[4, 8, 6, 4, 2, 2]","[5, 5, 1, 7, 1, 5]",12.25,,70.0,Pink to Blue,Green to Orange,,,,,989.5,,,,ua60hkvff,experiment_VB,,356153,62.0,blocks-exp,
272,479,94,28.0,19.0,,1.0,"[5, 3, 8, 3, 3, 6]","[5, 2, 2, 5, 4, 1]",12.25,,70.0,Pink to Blue,Green to Orange,,,,,993.8000000119208,,,,ua60hkvff,experiment_VB,,358150,63.0,blocks-exp,
273,480,95,18.0,21.0,,1.0,"[3, 3, 3, 5, 3, 1]","[4, 3, 3, 5, 1, 5]",12.25,,74.0,Pink to Blue,Green to Orange,,,,,1273.4000000357628,,,,ua60hkvff,experiment_VB,,360442,64.0,blocks-exp,
274,481,96,27.0,12.0,,1.0,"[6, 1, 5, 5, 7, 3]","[2, 1, 1, 3, 2, 3]",12.25,,70.0,Pink to Blue,Green to Orange,,,,,684.0,,,,ua60hkvff,experiment_VB,,362136,65.0,blocks-exp,
275,482,97,31.0,18.0,,1.0,"[5, 8, 6, 3, 5, 4]","[1, 1, 4, 1, 3, 8]",12.25,,70.0,Pink to Blue,Green to Orange,,,,,747.6000000238419,,,,ua60hkvff,experiment_VB,,363887,66.0,blocks-exp,
276,483,98,42.0,33.0,,1.0,"[7, 8, 7, 8, 7, 5]","[7, 6, 7, 1, 8, 4]",12.25,,70.0,Pink to Blue,Green to Orange,,,,,902.1999999880792,,,,ua60hkvff,experiment_VB,,365794,67.0,blocks-exp,
277,484,99,27.0,33.0,,1.0,"[1, 3, 4, 8, 8, 3]","[7, 3, 5, 7, 5, 6]",12.25,,74.0,Pink to Blue,Green to Orange,,,,,924.1999999880792,,,,ua60hkvff,experiment_VB,,367722,68.0,blocks-exp,
278,485,100,27.0,23.0,,1.0,"[2, 2, 8, 6, 5, 4]","[1, 1, 7, 4, 6, 4]",12.25,,70.0,Pink to Blue,Green to Orange,,,,,878.3999999761581,,,,ua60hkvff,experiment_VB,,369610,69.0,blocks-exp,
279,486,101,27.0,38.0,,1.0,"[7, 2, 6, 6, 3, 3]","[8, 7, 7, 5, 3, 8]",12.25,,74.0,Pink to Blue,Green to Orange,,,,,553.3000000119209,,,,ua60hkvff,experiment_VB,,371170,70.0,blocks-exp,
280,487,102,32.0,21.0,,1.0,"[7, 6, 4, 3, 6, 6]","[1, 8, 6, 1, 2, 3]",12.25,,70.0,Pink to Blue,Green to Orange,,,,,553.3000000119209,,,,ua60hkvff,experiment_VB,,372733,71.0,blocks-exp,
281,488,103,25.0,25.0,,0.0,"[5, 2, 4, 6, 2, 6]","[8, 6, 4, 4, 1, 2]",12.25,,70.0,Pink to Blue,Green to Orange,,,,,853.5,,,,ua60hkvff,experiment_VB,,374601,72.0,blocks-exp,
282,489,104,20.0,27.0,,1.0,"[1, 7, 4, 2, 1, 5]","[1, 6, 2, 6, 6, 6]",12.25,,74.0,Pink to Blue,Green to Orange,,,,,533.3999999761581,,,,ua60hkvff,experiment_VB,,376138,73.0,blocks-exp,
283,490,105,27.0,35.0,,1.0,"[7, 4, 4, 6, 2, 4]","[7, 8, 3, 8, 3, 6]",12.25,,74.0,Pink to Blue,Green to Orange,,,,,818.8000000119209,,,,ua60hkvff,experiment_VB,,377961,74.0,blocks-exp,
284,491,106,18.0,13.0,,0.0,"[3, 2, 3, 4, 3, 3]","[6, 1, 2, 2, 1, 1]",12.25,,74.0,Pink to Blue,Green to Orange,,,,,921.9000000357628,,,,ua60hkvff,experiment_VB,,379888,75.0,blocks-exp,
285,492,107,39.0,22.0,,1.0,"[7, 3, 7, 6, 8, 8]","[2, 7, 3, 6, 2, 2]",12.25,,70.0,Pink to Blue,Green to Orange,,,,,740.8000000119209,,,,ua60hkvff,experiment_VB,,381633,76.0,blocks-exp,
286,493,108,22.0,29.0,,1.0,"[4, 1, 7, 3, 2, 5]","[6, 5, 1, 5, 7, 5]",12.25,,74.0,Pink to Blue,Green to Orange,,,,,803.1000000238419,,,,ua60hkvff,experiment_VB,,383441,77.0,blocks-exp,
287,494,109,28.0,26.0,,0.0,"[3, 4, 4, 2, 7, 8]","[7, 8, 5, 1, 4, 1]",12.25,,74.0,Pink to Blue,Green to Orange,,,,,725.3000000119209,,,,ua60hkvff,experiment_VB,,385171,78.0,blocks-exp,
288,495,110,29.0,26.0,,0.0,"[1, 5, 4, 7, 8, 4]","[8, 8, 2, 3, 2, 3]",12.25,,74.0,Pink to Blue,Green to Orange,,,,,1447.5,,,,ua60hkvff,experiment_VB,,387630,79.0,blocks-exp,
289,496,111,32.0,28.0,,1.0,"[2, 8, 4, 2, 8, 8]","[4, 8, 7, 2, 3, 4]",12.25,,70.0,Pink to Blue,Green to Orange,,,,,636.3000000119209,,,,ua60hkvff,experiment_VB,,389271,80.0,blocks-exp,
290,497,112,33.0,33.0,,0.0,"[1, 5, 6, 8, 5, 8]","[3, 4, 6, 7, 7, 6]",12.25,,70.0,Pink to Blue,Green to Orange,,,,,1156.4000000357628,,,,ua60hkvff,experiment_VB,,391432,81.0,blocks-exp,
291,498,113,21.0,32.0,,1.0,"[1, 8, 3, 4, 3, 2]","[5, 8, 4, 2, 6, 7]",12.25,,74.0,Pink to Blue,Green to Orange,,,,,1119.199999988079,,,,ua60hkvff,experiment_VB,,393557,82.0,blocks-exp,
292,499,114,29.0,42.0,,1.0,"[8, 3, 5, 5, 4, 4]","[8, 8, 6, 8, 6, 6]",12.25,,74.0,Pink to Blue,Green to Orange,,,,,437.2000000476837,,,,ua60hkvff,experiment_VB,,394999,83.0,blocks-exp,
293,500,115,25.0,20.0,,1.0,"[2, 8, 7, 1, 4, 3]","[6, 6, 2, 3, 1, 2]",12.25,,70.0,Pink to Blue,Green to Orange,,,,,711.7000000476837,,,,ua60hkvff,experiment_VB,,396714,84.0,blocks-exp,
294,501,116,31.0,36.0,,1.0,"[7, 3, 6, 3, 4, 8]","[5, 6, 8, 8, 2, 7]",12.25,,74.0,Pink to Blue,Green to Orange,,,,,507.0999999642372,,,,ua60hkvff,experiment_VB,,398226,85.0,blocks-exp,
295,502,117,28.0,26.0,,0.0,"[5, 3, 5, 6, 2, 7]","[6, 1, 2, 3, 7, 7]",12.25,,74.0,Pink to Blue,Green to Orange,,,,,935.0,,,,ua60hkvff,experiment_VB,,400165,86.0,blocks-exp,
296,503,118,24.0,29.0,,1.0,"[8, 4, 3, 5, 3, 1]","[7, 2, 7, 8, 4, 1]",12.25,,74.0,Pink to Blue,Green to Orange,,,,,481.8999999761581,,,,ua60hkvff,experiment_VB,,401651,87.0,blocks-exp,
297,504,119,44.0,25.0,,1.0,"[8, 8, 6, 8, 6, 8]","[8, 3, 5, 4, 3, 2]",12.25,,70.0,Pink to Blue,Green to Orange,,,,,475.1999999880791,,,,ua60hkvff,experiment_VB,,403130,88.0,blocks-exp,
298,505,120,16.0,29.0,,1.0,"[6, 3, 1, 4, 1, 1]","[6, 5, 3, 6, 2, 7]",12.25,,74.0,Pink to Blue,Green to Orange,,,,,623.7000000476837,,,,ua60hkvff,experiment_VB,,404758,89.0,blocks-exp,
299,506,121,21.0,19.0,,1.0,"[6, 7, 1, 3, 1, 3]","[4, 5, 4, 2, 1, 3]",12.25,,70.0,Pink to Blue,Green to Orange,,,,,843.8000000119209,,,,ua60hkvff,experiment_VB,,406607,90.0,blocks-exp,
300,507,122,25.0,27.0,,1.0,"[4, 3, 6, 8, 2, 2]","[7, 7, 4, 4, 1, 4]",12.25,,74.0,Pink to Blue,Green to Orange,,,,,486.1999999880791,,,,ua60hkvff,experiment_VB,,408096,91.0,blocks-exp,
301,508,123,33.0,28.0,,1.0,"[8, 7, 7, 2, 4, 5]","[7, 5, 3, 2, 3, 8]",12.25,,70.0,Pink to Blue,Green to Orange,,,,,581.6999999880791,,,,ua60hkvff,experiment_VB,,409682,92.0,blocks-exp,
302,509,124,27.0,19.0,,1.0,"[1, 6, 6, 3, 8, 3]","[3, 1, 6, 4, 4, 1]",12.25,,70.0,Pink to Blue,Green to Orange,,,,,517.6999999880791,,,,ua60hkvff,experiment_VB,,411216,93.0,blocks-exp,
303,510,125,27.0,22.0,,1.0,"[5, 2, 7, 6, 5, 2]","[3, 1, 5, 6, 1, 6]",12.25,,70.0,Pink to Blue,Green to Orange,,,,,620.0,,,,ua60hkvff,experiment_VB,,412840,94.0,blocks-exp,
304,511,126,30.0,33.0,,0.0,"[6, 1, 3, 7, 5, 8]","[5, 3, 8, 6, 7, 4]",12.25,,70.0,Pink to Blue,Green to Orange,,,,,577.1000000238419,,,,ua60hkvff,experiment_VB,,414423,95.0,blocks-exp,
305,512,127,17.0,34.0,,1.0,"[4, 4, 1, 1, 1, 6]","[5, 2, 8, 7, 8, 4]",12.25,,74.0,Pink to Blue,Green to Orange,,,,,540.1999999880791,,,,ua60hkvff,experiment_VB,,415968,96.0,blocks-exp,
306,513,128,35.0,22.0,,1.0,"[8, 5, 7, 8, 1, 6]","[2, 8, 4, 4, 3, 1]",12.25,,70.0,Pink to Blue,Green to Orange,,,,,607.4000000357628,,,,ua60hkvff,experiment_VB,,417580,97.0,blocks-exp,
307,514,129,17.0,22.0,,1.0,"[2, 3, 2, 6, 1, 3]","[7, 2, 4, 4, 3, 2]",12.25,,74.0,Pink to Blue,Green to Orange,,,,,709.8000000119209,,,,ua60hkvff,experiment_VB,,419295,98.0,blocks-exp,
308,515,130,22.0,34.0,,1.0,"[6, 1, 3, 1, 6, 5]","[5, 8, 7, 4, 3, 7]",12.25,,74.0,Pink to Blue,Green to Orange,,,,,544.0,,,,ua60hkvff,experiment_VB,,420848,99.0,blocks-exp,
309,516,131,31.0,25.0,,1.0,"[3, 6, 2, 7, 5, 8]","[8, 6, 4, 4, 1, 2]",12.25,,70.0,Pink to Blue,Green to Orange,,,,,982.4000000357628,,,,ua60hkvff,experiment_VB,,422847,100.0,blocks-exp,
310,517,132,34.0,27.0,,1.0,"[6, 1, 7, 6, 6, 8]","[3, 7, 6, 8, 2, 1]",12.25,,70.0,Pink to Blue,Green to Orange,,,,,558.6000000238419,,,,ua60hkvff,experiment_VB,,424412,101.0,blocks-exp,
311,518,133,25.0,33.0,,1.0,"[2, 3, 6, 1, 6, 7]","[5, 8, 8, 1, 7, 4]",12.25,,74.0,Pink to Blue,Green to Orange,,,,,738.1999999880791,,,,ua60hkvff,experiment_VB,,426154,102.0,blocks-exp,
312,519,134,23.0,33.0,,1.0,"[8, 2, 2, 1, 4, 6]","[6, 6, 5, 7, 8, 1]",12.25,,74.0,Pink to Blue,Green to Orange,,,,,554.6999999880791,,,,ua60hkvff,experiment_VB,,427714,103.0,blocks-exp,
313,520,135,20.0,33.0,,1.0,"[5, 2, 3, 1, 7, 2]","[6, 7, 7, 2, 4, 7]",12.25,,74.0,Pink to Blue,Green to Orange,,,,,475.4000000357628,,,,ua60hkvff,experiment_VB,,429198,104.0,blocks-exp,
314,521,136,19.0,17.0,,1.0,"[2, 2, 4, 4, 5, 2]","[3, 6, 1, 2, 4, 1]",12.25,,70.0,Pink to Blue,Green to Orange,,,,,1601.600000023842,,,,ua60hkvff,experiment_VB,,431805,105.0,blocks-exp,
315,522,137,25.0,32.0,,1.0,"[6, 3, 1, 6, 6, 3]","[8, 2, 1, 5, 8, 8]",12.25,,74.0,Pink to Blue,Green to Orange,,,,,561.8000000119209,,,,ua60hkvff,experiment_VB,,433371,106.0,blocks-exp,
316,523,138,29.0,28.0,,0.0,"[3, 7, 7, 5, 3, 4]","[2, 6, 2, 6, 6, 6]",12.25,,74.0,Pink to Blue,Green to Orange,,,,,983.9000000357628,,,,ua60hkvff,experiment_VB,,435359,107.0,blocks-exp,
317,524,139,23.0,19.0,,1.0,"[1, 6, 2, 2, 8, 4]","[3, 2, 3, 1, 3, 7]",12.25,,70.0,Pink to Blue,Green to Orange,,,,,1052.100000023842,,,,ua60hkvff,experiment_VB,,437415,108.0,blocks-exp,
318,525,140,33.0,29.0,,1.0,"[7, 2, 7, 5, 7, 5]","[2, 7, 4, 5, 4, 7]",12.25,,70.0,Pink to Blue,Green to Orange,,,,,788.7000000476837,,,,ua60hkvff,experiment_VB,,439208,109.0,blocks-exp,
319,526,141,27.0,19.0,,1.0,"[4, 6, 2, 8, 5, 2]","[2, 7, 1, 2, 2, 5]",12.25,,70.0,Pink to Blue,Green to Orange,,,,,733.8000000119209,,,,ua60hkvff,experiment_VB,,440945,110.0,blocks-exp,
320,527,142,33.0,23.0,,1.0,"[8, 7, 6, 6, 3, 3]","[2, 3, 1, 8, 4, 5]",12.25,,70.0,Pink to Blue,Green to Orange,,,,,513.0999999642372,,,,ua60hkvff,experiment_VB,,442462,111.0,blocks-exp,
321,528,143,22.0,30.0,,1.0,"[2, 3, 3, 3, 5, 6]","[8, 5, 3, 7, 5, 2]",12.25,,74.0,Pink to Blue,Green to Orange,,,,,363.8999999761581,,,,ua60hkvff,experiment_VB,,443830,112.0,blocks-exp,
322,529,144,28.0,24.0,,0.0,"[7, 6, 4, 4, 3, 4]","[4, 5, 1, 2, 6, 6]",12.25,,74.0,Pink to Blue,Green to Orange,,,,,550.1000000238419,,,,ua60hkvff,experiment_VB,,445384,113.0,blocks-exp,
323,530,145,38.0,30.0,,0.0,"[5, 8, 8, 6, 4, 7]","[7, 6, 8, 3, 2, 4]",12.25,,74.0,Pink to Blue,Green to Orange,,,,,441.3000000119209,,,,ua60hkvff,experiment_VB,,446840,114.0,blocks-exp,
324,531,146,28.0,24.0,,1.0,"[5, 8, 8, 3, 3, 1]","[4, 4, 2, 8, 3, 3]",12.25,,70.0,Pink to Blue,Green to Orange,,,,,444.9000000357628,,,,ua60hkvff,experiment_VB,,448288,115.0,blocks-exp,
325,532,147,16.0,28.0,,1.0,"[2, 5, 4, 2, 2, 1]","[3, 6, 4, 3, 7, 5]",12.25,,74.0,Pink to Blue,Green to Orange,,,,,565.8000000119209,,,,ua60hkvff,experiment_VB,,449857,116.0,blocks-exp,
326,533,148,26.0,26.0,,0.0,"[4, 2, 5, 1, 7, 7]","[8, 1, 8, 3, 3, 3]",12.25,,74.0,Pink to Blue,Green to Orange,,,,,827.5999999642372,,,,ua60hkvff,experiment_VB,,451689,117.0,blocks-exp,
327,534,149,29.0,30.0,,1.0,"[7, 3, 3, 8, 6, 2]","[7, 7, 3, 3, 3, 7]",12.25,,74.0,Pink to Blue,Green to Orange,,,,,637.5999999642372,,,,ua60hkvff,experiment_VB,,453331,118.0,blocks-exp,
328,535,150,18.0,19.0,,1.0,"[1, 2, 1, 1, 6, 7]","[6, 1, 2, 8, 1, 1]",12.25,,74.0,Pink to Blue,Green to Orange,,,,,944.7999999523164,,,,ua60hkvff,experiment_VB,,455279,119.0,blocks-exp,
329,536,151,19.0,26.0,,1.0,"[6, 4, 2, 1, 1, 5]","[3, 8, 4, 6, 3, 2]",12.25,,74.0,Pink to Blue,Green to Orange,,,,,516.3000000119209,,,,ua60hkvff,experiment_VB,,456800,120.0,blocks-exp,
330,537,152,28.0,26.0,,0.0,"[4, 4, 1, 6, 8, 5]","[7, 3, 2, 5, 3, 6]",12.25,,74.0,Pink to Blue,Green to Orange,,,,,712.8999999761581,,,,ua60hkvff,experiment_VB,,458517,121.0,blocks-exp,
331,538,153,35.0,27.0,,1.0,"[7, 5, 7, 8, 6, 2]","[5, 2, 8, 5, 3, 4]",12.25,,70.0,Pink to Blue,Green to Orange,,,,,439.1999999880791,,,,ua60hkvff,experiment_VB,,459960,122.0,blocks-exp,
332,539,154,33.0,34.0,,1.0,"[5, 8, 3, 7, 5, 5]","[7, 7, 6, 5, 7, 2]",12.25,,74.0,Pink to Blue,Green to Orange,,,,,412.6999999880791,,,,ua60hkvff,experiment_VB,,461377,123.0,blocks-exp,
333,540,155,33.0,25.0,,1.0,"[4, 8, 2, 7, 5, 7]","[8, 6, 4, 1, 3, 3]",12.25,,70.0,Pink to Blue,Green to Orange,,,,,847.6000000238419,,,,ua60hkvff,experiment_VB,,463229,124.0,blocks-exp,
334,541,156,31.0,25.0,,1.0,"[7, 6, 3, 4, 4, 7]","[4, 3, 3, 5, 7, 3]",12.25,,70.0,Pink to Blue,Green to Orange,,,,,463.0,,,,ua60hkvff,experiment_VB,,464697,125.0,blocks-exp,
335,542,157,25.0,18.0,,1.0,"[5, 8, 3, 4, 1, 4]","[1, 8, 1, 1, 1, 6]",12.25,,70.0,Pink to Blue,Green to Orange,,,,,685.6000000238419,,,,ua60hkvff,experiment_VB,,466387,126.0,blocks-exp,
336,543,158,24.0,24.0,,0.0,"[3, 6, 3, 3, 8, 1]","[4, 1, 2, 8, 4, 5]",12.25,,70.0,Pink to Blue,Green to Orange,,,,,643.1000000238419,,,,ua60hkvff,experiment_VB,,468040,127.0,blocks-exp,
337,544,159,31.0,27.0,,1.0,"[8, 8, 2, 5, 7, 1]","[8, 8, 1, 4, 5, 1]",12.25,,70.0,Pink to Blue,Green to Orange,,,,,879.1000000238419,,,,ua60hkvff,experiment_VB,,469924,128.0,blocks-exp,
338,545,160,37.0,30.0,,1.0,"[7, 8, 3, 6, 7, 6]","[4, 6, 4, 7, 7, 2]",12.25,,70.0,Pink to Blue,Green to Orange,,,,,640.5,,,,ua60hkvff,experiment_VB,,471569,129.0,blocks-exp,
339,546,161,35.0,36.0,,1.0,"[8, 5, 6, 6, 2, 8]","[7, 6, 8, 5, 4, 6]",12.25,,74.0,Pink to Blue,Green to Orange,,,,,576.8999999761581,,,,ua60hkvff,experiment_VB,,473153,130.0,blocks-exp,
340,547,162,29.0,23.0,,1.0,"[8, 7, 7, 4, 2, 1]","[1, 8, 4, 6, 3, 1]",12.25,,70.0,Pink to Blue,Green to Orange,,,,,458.5,,,,ua60hkvff,experiment_VB,,474627,131.0,blocks-exp,
341,548,163,22.0,31.0,,1.0,"[4, 2, 2, 8, 1, 5]","[4, 3, 7, 4, 8, 5]",12.25,,74.0,Pink to Blue,Green to Orange,,,,,701.6000000238419,,,,ua60hkvff,experiment_VB,,476332,132.0,blocks-exp,
342,549,164,27.0,32.0,,1.0,"[1, 8, 8, 2, 3, 5]","[7, 1, 3, 8, 8, 5]",12.25,,74.0,Pink to Blue,Green to Orange,,,,,697.0,,,,ua60hkvff,experiment_VB,,478035,133.0,blocks-exp,
343,550,165,18.0,33.0,,1.0,"[7, 1, 1, 5, 3, 1]","[7, 8, 5, 5, 6, 2]",12.25,,74.0,Pink to Blue,Green to Orange,,,,,447.5,,,,ua60hkvff,experiment_VB,,479488,134.0,blocks-exp,
344,551,166,33.0,17.0,,1.0,"[2, 8, 8, 4, 8, 3]","[5, 5, 1, 1, 4, 1]",12.25,,70.0,Pink to Blue,Green to Orange,,,,,486.9000000357628,,,,ua60hkvff,experiment_VB,,480987,135.0,blocks-exp,
345,552,167,24.0,20.0,,1.0,"[4, 2, 7, 2, 1, 8]","[1, 7, 3, 7, 1, 1]",12.25,,70.0,Pink to Blue,Green to Orange,,,,,566.2000000476837,,,,ua60hkvff,experiment_VB,,482557,136.0,blocks-exp,
346,553,168,27.0,29.0,,1.0,"[4, 6, 6, 3, 6, 2]","[6, 6, 3, 7, 5, 2]",12.25,,74.0,Pink to Blue,Green to Orange,,,,,960.2999999523164,,,,ua60hkvff,experiment_VB,,484522,137.0,blocks-exp,
347,554,169,27.0,34.0,,1.0,"[5, 3, 4, 5, 3, 7]","[4, 7, 6, 5, 8, 4]",12.25,,74.0,Pink to Blue,Green to Orange,,,,,531.8999999761581,,,,ua60hkvff,experiment_VB,,486057,138.0,blocks-exp,
348,555,170,30.0,21.0,,1.0,"[2, 1, 7, 7, 5, 8]","[8, 1, 3, 1, 4, 4]",12.25,,70.0,Pink to Blue,Green to Orange,,,,,542.4000000357628,,,,ua60hkvff,experiment_VB,,487603,139.0,blocks-exp,
349,556,171,25.0,30.0,,1.0,"[2, 5, 8, 3, 3, 4]","[3, 4, 8, 2, 5, 8]",12.25,,74.0,Pink to Blue,Green to Orange,,,,,428.3000000119209,,,,ua60hkvff,experiment_VB,,489040,140.0,blocks-exp,
350,557,172,21.0,22.0,,1.0,"[7, 1, 7, 1, 1, 4]","[7, 3, 1, 5, 1, 5]",12.25,,74.0,Pink to Blue,Green to Orange,,,,,798.1999999880791,,,,ua60hkvff,experiment_VB,,490843,141.0,blocks-exp,
351,558,173,28.0,37.0,,1.0,"[3, 3, 5, 6, 3, 8]","[8, 7, 2, 7, 8, 5]",12.25,,74.0,Pink to Blue,Green to Orange,,,,,455.0,,,,ua60hkvff,experiment_VB,,492311,142.0,blocks-exp,
352,559,174,17.0,33.0,,1.0,"[3, 2, 6, 1, 2, 3]","[7, 5, 5, 8, 4, 4]",12.25,,74.0,Pink to Blue,Green to Orange,,,,,419.5999999642372,,,,ua60hkvff,experiment_VB,,493735,143.0,blocks-exp,
353,560,175,21.0,24.0,,0.0,"[3, 8, 2, 2, 5, 1]","[6, 1, 4, 5, 4, 4]",12.25,,70.0,Pink to Blue,Green to Orange,,,,,1438.100000023842,,,,ua60hkvff,experiment_VB,,496185,144.0,blocks-exp,
354,561,176,27.0,19.0,,1.0,"[4, 1, 6, 4, 7, 5]","[2, 4, 1, 1, 3, 8]",12.25,,70.0,Pink to Blue,Green to Orange,,,,,864.6999999880791,,,,ua60hkvff,experiment_VB,,498053,145.0,blocks-exp,
355,562,177,23.0,26.0,,1.0,"[1, 3, 5, 7, 6, 1]","[2, 7, 8, 2, 2, 5]",12.25,,74.0,Pink to Blue,Green to Orange,,,,,484.10000002384186,,,,ua60hkvff,experiment_VB,,499540,146.0,blocks-exp,
356,563,178,26.0,27.0,,0.0,"[2, 1, 2, 7, 7, 7]","[5, 2, 5, 7, 2, 6]",12.25,,70.0,Pink to Blue,Green to Orange,,,,,604.6999999880791,,,,ua60hkvff,experiment_VB,,501157,147.0,blocks-exp,
357,564,179,27.0,29.0,,1.0,"[2, 4, 8, 1, 7, 5]","[4, 6, 1, 5, 6, 7]",12.25,,74.0,Pink to Blue,Green to Orange,,,,,518.9000000357628,,,,ua60hkvff,experiment_VB,,502680,148.0,blocks-exp,
358,565,180,38.0,31.0,,1.0,"[7, 6, 8, 3, 7, 7]","[8, 5, 6, 4, 1, 7]",12.25,,70.0,Pink to Blue,Green to Orange,,,,,571.4000000357628,,,,ua60hkvff,experiment_VB,,504270,149.0,blocks-exp,
359,566,181,39.0,23.0,,1.0,"[8, 8, 3, 6, 6, 8]","[3, 8, 1, 2, 4, 5]",12.25,,70.0,Pink to Blue,Green to Orange,,,,,483.8000000119209,,,,ua60hkvff,experiment_VB,,505757,150.0,blocks-exp,
360,772,2,28.0,22.0,,1.0,"[5, 2, 8, 5, 2, 6]","[4, 3, 3, 6, 4, 2]",11.5,,70.0,Green to Orange,Blue to Pink,,,,,2353.5,,,,o2ql6etsj,training_VB,,98355,1.0,blocks,
361,773,3,29.0,28.0,,1.0,"[7, 8, 2, 7, 3, 2]","[8, 1, 4, 7, 3, 5]",11.5,,70.0,Green to Orange,Blue to Pink,,,,,2063.899999976158,,,,o2ql6etsj,training_VB,,102425,2.0,blocks,
362,774,4,32.0,28.0,,1.0,"[4, 8, 8, 3, 8, 1]","[4, 7, 7, 5, 1, 4]",11.5,,70.0,Green to Orange,Blue to Pink,,,,,1263.199999988079,,,,o2ql6etsj,training_VB,,105693,3.0,blocks,
363,775,5,39.0,24.0,,1.0,"[5, 8, 8, 7, 8, 3]","[5, 2, 1, 5, 7, 4]",11.5,,70.0,Green to Orange,Blue to Pink,,,,,845.1000000238419,,,,o2ql6etsj,training_VB,,108542,4.0,blocks,
364,776,6,19.0,25.0,,1.0,"[4, 1, 4, 4, 3, 3]","[1, 2, 8, 1, 8, 5]",11.5,,74.0,Green to Orange,Blue to Pink,,,,,708.3000000119209,,,,o2ql6etsj,training_VB,,111256,5.0,blocks,
365,777,7,31.0,25.0,,1.0,"[5, 8, 7, 2, 2, 7]","[3, 6, 3, 5, 5, 3]",11.5,,70.0,Green to Orange,Blue to Pink,,,,,1083.600000023842,,,,o2ql6etsj,training_VB,,114345,6.0,blocks,
366,778,8,27.0,23.0,,1.0,"[7, 5, 6, 4, 4, 1]","[1, 5, 2, 5, 3, 7]",11.5,,70.0,Green to Orange,Blue to Pink,,,,,1834.0999999642368,,,,o2ql6etsj,training_VB,,118186,7.0,blocks,
367,779,9,21.0,23.0,,1.0,"[4, 1, 2, 5, 2, 7]","[2, 4, 2, 8, 4, 3]",11.5,,74.0,Green to Orange,Blue to Pink,,,,,2071.5,,,,o2ql6etsj,training_VB,,122263,8.0,blocks,
368,780,10,32.0,25.0,,1.0,"[6, 4, 7, 8, 3, 4]","[3, 6, 6, 6, 1, 3]",11.5,,70.0,Green to Orange,Blue to Pink,,,,,1978.0,,,,o2ql6etsj,training_VB,,126248,9.0,blocks,
369,781,11,19.0,31.0,,1.0,"[5, 6, 3, 1, 2, 2]","[7, 5, 6, 5, 2, 6]",11.5,,74.0,Green to Orange,Blue to Pink,,,,,1008.6999999880792,,,,o2ql6etsj,training_VB,,129262,10.0,blocks,
370,782,12,25.0,28.0,,1.0,"[6, 3, 6, 8, 1, 1]","[7, 4, 3, 2, 5, 7]",11.5,,74.0,Green to Orange,Blue to Pink,,,,,1572.699999988079,,,,o2ql6etsj,training_VB,,132839,11.0,blocks,
371,783,13,36.0,34.0,,1.0,"[4, 6, 6, 7, 5, 8]","[6, 7, 6, 5, 6, 4]",11.5,,70.0,Green to Orange,Blue to Pink,,,,,2246.600000023842,,,,o2ql6etsj,training_VB,,137091,12.0,blocks,
372,784,14,28.0,21.0,,1.0,"[2, 1, 7, 5, 7, 6]","[6, 1, 5, 1, 7, 1]",11.5,,70.0,Green to Orange,Blue to Pink,,,,,2243.0,,,,o2ql6etsj,training_VB,,141338,13.0,blocks,
373,785,15,16.0,28.0,,1.0,"[3, 5, 5, 1, 1, 1]","[4, 1, 5, 7, 6, 5]",11.5,,74.0,Green to Orange,Blue to Pink,,,,,729.1000000238419,,,,o2ql6etsj,training_VB,,144073,14.0,blocks,
374,786,16,34.0,31.0,,1.0,"[7, 4, 4, 7, 5, 7]","[1, 3, 5, 8, 8, 6]",11.5,,70.0,Green to Orange,Blue to Pink,,,,,2596.199999988079,,,,o2ql6etsj,training_VB,,148674,15.0,blocks,
375,787,17,25.0,28.0,,0.0,"[3, 3, 3, 5, 6, 5]","[8, 1, 1, 4, 7, 7]",11.5,,70.0,Green to Orange,Blue to Pink,,,,,3525.899999976158,,,,o2ql6etsj,training_VB,,154205,16.0,blocks,
376,788,18,21.0,20.0,,1.0,"[8, 5, 2, 2, 3, 1]","[1, 7, 3, 3, 3, 3]",11.5,,70.0,Green to Orange,Blue to Pink,,,,,2978.300000011921,,,,o2ql6etsj,training_VB,,159189,17.0,blocks,
377,789,19,17.0,23.0,,1.0,"[1, 3, 2, 1, 5, 5]","[4, 5, 4, 7, 2, 1]",11.5,,74.0,Green to Orange,Blue to Pink,,,,,2326.300000011921,,,,o2ql6etsj,training_VB,,163521,18.0,blocks,
378,790,20,28.0,27.0,,1.0,"[2, 6, 6, 4, 7, 3]","[7, 3, 3, 3, 8, 3]",11.5,,70.0,Green to Orange,Blue to Pink,,,,,1387.9000000357628,,,,o2ql6etsj,training_VB,,166914,19.0,blocks,
379,791,21,18.0,35.0,,1.0,"[2, 2, 2, 1, 6, 5]","[8, 8, 8, 1, 3, 7]",11.5,,74.0,Green to Orange,Blue to Pink,,,,,772.1999999880791,,,,o2ql6etsj,training_VB,,169705,20.0,blocks,
380,792,22,31.0,29.0,,1.0,"[6, 7, 3, 6, 1, 8]","[4, 8, 3, 5, 1, 8]",11.5,,70.0,Green to Orange,Blue to Pink,,,,,1282.300000011921,,,,o2ql6etsj,training_VB,,172992,21.0,blocks,
381,793,23,30.0,19.0,,1.0,"[2, 6, 3, 8, 6, 5]","[5, 3, 3, 2, 2, 4]",11.5,,70.0,Green to Orange,Blue to Pink,,,,,1437.7000000476835,,,,o2ql6etsj,training_VB,,176436,22.0,blocks,
382,794,24,29.0,24.0,,1.0,"[1, 8, 4, 6, 3, 7]","[1, 1, 5, 8, 6, 3]",11.5,,70.0,Green to Orange,Blue to Pink,,,,,2317.400000035763,,,,o2ql6etsj,training_VB,,180757,23.0,blocks,
383,795,25,34.0,26.0,,1.0,"[8, 3, 8, 6, 1, 8]","[1, 5, 3, 3, 7, 7]",11.5,,70.0,Green to Orange,Blue to Pink,,,,,2266.2999999523163,,,,o2ql6etsj,training_VB,,185027,24.0,blocks,
384,796,26,32.0,30.0,,1.0,"[8, 6, 2, 4, 8, 4]","[6, 8, 2, 7, 3, 4]",11.5,,70.0,Green to Orange,Blue to Pink,,,,,1892.6000000238416,,,,o2ql6etsj,training_VB,,188925,25.0,blocks,
385,797,27,38.0,28.0,,1.0,"[5, 7, 7, 8, 3, 8]","[8, 6, 1, 4, 6, 3]",11.5,,70.0,Green to Orange,Blue to Pink,,,,,1178.4000000357628,,,,o2ql6etsj,training_VB,,192109,26.0,blocks,
386,798,28,21.0,19.0,,0.0,"[3, 3, 8, 3, 2, 2]","[1, 2, 4, 1, 5, 6]",11.5,,74.0,Green to Orange,Blue to Pink,,,,,2929.800000011921,,,,o2ql6etsj,training_VB,,197044,27.0,blocks,
387,799,29,27.0,35.0,,1.0,"[6, 8, 3, 3, 5, 2]","[5, 2, 5, 8, 8, 7]",11.5,,74.0,Green to Orange,Blue to Pink,,,,,969.100000023842,,,,o2ql6etsj,training_VB,,200020,28.0,blocks,
388,800,30,28.0,29.0,,1.0,"[3, 5, 3, 5, 8, 4]","[4, 8, 4, 1, 7, 5]",11.5,,74.0,Green to Orange,Blue to Pink,,,,,1081.5999999642372,,,,o2ql6etsj,training_VB,,203111,29.0,blocks,
389,801,31,15.0,32.0,,1.0,"[3, 2, 2, 4, 1, 3]","[3, 4, 8, 6, 5, 6]",11.5,,74.0,Green to Orange,Blue to Pink,,,,,812.8999999761581,,,,o2ql6etsj,training_VB,,205930,30.0,blocks,
390,802,32,20.0,29.0,,1.0,"[6, 1, 3, 3, 3, 4]","[7, 2, 6, 8, 5, 1]",11.5,,74.0,Green to Orange,Blue to Pink,,,,,812.4000000357628,,,,o2ql6etsj,experiment_VB,,296423,1.0,blocks-exp,
391,803,33,39.0,22.0,,1.0,"[3, 8, 5, 8, 8, 7]","[3, 4, 1, 5, 4, 5]",11.5,,70.0,Green to Orange,Blue to Pink,,,,,727.5999999642372,,,,o2ql6etsj,experiment_VB,,298157,2.0,blocks-exp,
392,804,34,27.0,31.0,,1.0,"[5, 5, 1, 4, 8, 4]","[4, 6, 6, 8, 5, 2]",11.5,,74.0,Green to Orange,Blue to Pink,,,,,2477.600000023842,,,,o2ql6etsj,experiment_VB,,301640,3.0,blocks-exp,
393,805,35,24.0,19.0,,1.0,"[5, 2, 1, 4, 4, 8]","[2, 1, 4, 7, 4, 1]",11.5,,70.0,Green to Orange,Blue to Pink,,,,,2045.199999988079,,,,o2ql6etsj,experiment_VB,,304690,4.0,blocks-exp,
394,806,36,25.0,24.0,,0.0,"[5, 2, 7, 4, 1, 6]","[5, 4, 2, 7, 1, 5]",11.5,,74.0,Green to Orange,Blue to Pink,,,,,1810.6000000238416,,,,o2ql6etsj,experiment_VB,,307506,5.0,blocks-exp,
395,807,37,15.0,29.0,,1.0,"[1, 2, 6, 3, 2, 1]","[3, 6, 7, 7, 4, 2]",11.5,,74.0,Green to Orange,Blue to Pink,,,,,798.7999999523163,,,,o2ql6etsj,experiment_VB,,309309,6.0,blocks-exp,
396,808,38,34.0,23.0,,1.0,"[8, 8, 4, 6, 4, 4]","[5, 6, 3, 3, 3, 3]",11.5,,70.0,Green to Orange,Blue to Pink,,,,,860.3999999761581,,,,o2ql6etsj,experiment_VB,,311173,7.0,blocks-exp,
397,809,39,14.0,31.0,,1.0,"[3, 1, 1, 3, 5, 1]","[6, 1, 6, 7, 6, 5]",11.5,,74.0,Green to Orange,Blue to Pink,,,,,591.6000000238419,,,,o2ql6etsj,experiment_VB,,312768,8.0,blocks-exp,
398,810,40,23.0,31.0,,1.0,"[1, 8, 1, 5, 1, 7]","[5, 8, 5, 8, 1, 4]",11.5,,74.0,Green to Orange,Blue to Pink,,,,,1518.800000011921,,,,o2ql6etsj,experiment_VB,,315291,9.0,blocks-exp,
399,811,41,27.0,33.0,,1.0,"[8, 1, 1, 6, 8, 3]","[8, 6, 3, 7, 1, 8]",11.5,,74.0,Green to Orange,Blue to Pink,,,,,1021.0999999642372,,,,o2ql6etsj,experiment_VB,,317316,10.0,blocks-exp,
400,812,42,31.0,26.0,,1.0,"[7, 3, 7, 5, 1, 8]","[4, 1, 8, 8, 2, 3]",11.5,,70.0,Green to Orange,Blue to Pink,,,,,3480.800000011921,,,,o2ql6etsj,experiment_VB,,321800,11.0,blocks-exp,
401,813,43,24.0,19.0,,1.0,"[2, 6, 5, 3, 3, 5]","[6, 6, 2, 3, 1, 1]",11.5,,70.0,Green to Orange,Blue to Pink,,,,,2187.300000011921,,,,o2ql6etsj,experiment_VB,,324992,12.0,blocks-exp,
402,814,44,32.0,26.0,,1.0,"[6, 5, 4, 7, 3, 7]","[8, 7, 3, 2, 5, 1]",11.5,,70.0,Green to Orange,Blue to Pink,,,,,1751.7000000476835,,,,o2ql6etsj,experiment_VB,,327749,13.0,blocks-exp,
403,815,45,22.0,25.0,,1.0,"[6, 3, 4, 2, 1, 6]","[3, 5, 3, 2, 4, 8]",11.5,,74.0,Green to Orange,Blue to Pink,,,,,1751.100000023842,,,,o2ql6etsj,experiment_VB,,330508,14.0,blocks-exp,
404,816,46,12.0,15.0,,1.0,"[1, 2, 2, 2, 1, 4]","[2, 2, 1, 2, 2, 6]",11.5,,74.0,Green to Orange,Blue to Pink,,,,,1284.899999976158,,,,o2ql6etsj,experiment_VB,,332798,15.0,blocks-exp,
405,817,47,19.0,25.0,,1.0,"[8, 4, 1, 2, 2, 2]","[1, 8, 7, 5, 3, 1]",11.5,,74.0,Green to Orange,Blue to Pink,,,,,945.7999999523164,,,,o2ql6etsj,experiment_VB,,334749,16.0,blocks-exp,
406,818,48,25.0,30.0,,1.0,"[6, 2, 4, 1, 7, 5]","[6, 1, 7, 2, 7, 7]",11.5,,74.0,Green to Orange,Blue to Pink,,,,,3128.800000011921,,,,o2ql6etsj,experiment_VB,,338884,17.0,blocks-exp,
407,819,49,21.0,29.0,,1.0,"[3, 1, 8, 1, 6, 2]","[5, 8, 7, 5, 3, 1]",11.5,,74.0,Green to Orange,Blue to Pink,,,,,1338.5,,,,o2ql6etsj,experiment_VB,,341228,18.0,blocks-exp,
408,820,50,29.0,25.0,,1.0,"[4, 5, 3, 6, 6, 5]","[7, 7, 3, 4, 2, 2]",11.5,,70.0,Green to Orange,Blue to Pink,,,,,971.6999999880792,,,,o2ql6etsj,experiment_VB,,343204,19.0,blocks-exp,
409,821,51,32.0,32.0,,0.0,"[8, 7, 8, 1, 1, 7]","[8, 3, 2, 6, 8, 5]",11.5,,70.0,Green to Orange,Blue to Pink,,,,,2642.0,,,,o2ql6etsj,experiment_VB,,346851,20.0,blocks-exp,
410,822,52,27.0,31.0,,1.0,"[5, 4, 6, 3, 6, 3]","[2, 4, 4, 6, 7, 8]",11.5,,74.0,Green to Orange,Blue to Pink,,,,,1114.100000023842,,,,o2ql6etsj,experiment_VB,,348970,21.0,blocks-exp,
411,823,53,19.0,25.0,,1.0,"[2, 8, 3, 4, 1, 1]","[1, 7, 2, 7, 7, 1]",11.5,,74.0,Green to Orange,Blue to Pink,,,,,1200.800000011921,,,,o2ql6etsj,experiment_VB,,351175,22.0,blocks-exp,
412,824,54,36.0,24.0,,1.0,"[5, 8, 7, 8, 5, 3]","[8, 1, 3, 1, 3, 8]",11.5,,70.0,Green to Orange,Blue to Pink,,,,,879.2999999523163,,,,o2ql6etsj,experiment_VB,,353058,23.0,blocks-exp,
413,825,55,36.0,27.0,,1.0,"[7, 2, 6, 8, 8, 5]","[6, 8, 2, 2, 2, 7]",11.5,,70.0,Green to Orange,Blue to Pink,,,,,1174.300000011921,,,,o2ql6etsj,experiment_VB,,355238,24.0,blocks-exp,
414,826,56,29.0,34.0,,1.0,"[6, 7, 4, 5, 6, 1]","[6, 7, 4, 6, 8, 3]",11.5,,74.0,Green to Orange,Blue to Pink,,,,,3107.0,,,,o2ql6etsj,experiment_VB,,359349,25.0,blocks-exp,
415,827,57,22.0,17.0,,1.0,"[2, 5, 4, 1, 8, 2]","[1, 2, 1, 7, 5, 1]",11.5,,70.0,Green to Orange,Blue to Pink,,,,,1804.0,,,,o2ql6etsj,experiment_VB,,362158,26.0,blocks-exp,
416,828,58,26.0,26.0,,0.0,"[6, 8, 4, 2, 1, 5]","[5, 4, 5, 2, 2, 8]",11.5,,74.0,Green to Orange,Blue to Pink,,,,,9518.600000023842,,,,o2ql6etsj,experiment_VB,,372680,27.0,blocks-exp,
417,829,59,30.0,32.0,,1.0,"[3, 4, 3, 7, 8, 5]","[8, 5, 2, 1, 8, 8]",11.5,,74.0,Green to Orange,Blue to Pink,,,,,1181.0999999642372,,,,o2ql6etsj,experiment_VB,,374866,28.0,blocks-exp,
418,830,60,21.0,30.0,,1.0,"[1, 8, 2, 3, 5, 2]","[3, 3, 5, 6, 7, 6]",11.5,,74.0,Green to Orange,Blue to Pink,,,,,881.3999999761581,,,,o2ql6etsj,experiment_VB,,376751,29.0,blocks-exp,
419,831,61,27.0,27.0,,0.0,"[1, 7, 4, 4, 3, 8]","[4, 2, 7, 8, 3, 3]",11.5,,74.0,Green to Orange,Blue to Pink,,,,,9544.30000001192,,,,o2ql6etsj,experiment_VB,,387300,30.0,blocks-exp,
420,832,62,27.0,26.0,,1.0,"[7, 1, 2, 7, 8, 2]","[8, 7, 2, 2, 1, 6]",11.5,,70.0,Green to Orange,Blue to Pink,,,,,4132.0,,,,o2ql6etsj,experiment_VB,,392437,31.0,blocks-exp,
421,833,63,28.0,37.0,,1.0,"[1, 4, 8, 8, 5, 2]","[7, 3, 7, 7, 8, 5]",11.5,,74.0,Green to Orange,Blue to Pink,,,,,1210.7999999523165,,,,o2ql6etsj,experiment_VB,,394652,32.0,blocks-exp,
422,834,64,33.0,31.0,,1.0,"[3, 6, 5, 4, 8, 7]","[4, 1, 8, 4, 8, 6]",11.5,,70.0,Green to Orange,Blue to Pink,,,,,1640.699999988079,,,,o2ql6etsj,experiment_VB,,397297,33.0,blocks-exp,
423,835,65,34.0,23.0,,1.0,"[7, 7, 6, 1, 8, 5]","[3, 5, 5, 2, 1, 7]",11.5,,70.0,Green to Orange,Blue to Pink,,,,,1690.0,,,,o2ql6etsj,experiment_VB,,399990,34.0,blocks-exp,
424,836,66,34.0,30.0,,1.0,"[8, 7, 7, 8, 3, 1]","[8, 5, 8, 3, 5, 1]",11.5,,70.0,Green to Orange,Blue to Pink,,,,,2706.699999988079,,,,o2ql6etsj,experiment_VB,,403702,35.0,blocks-exp,
425,837,67,25.0,35.0,,1.0,"[3, 2, 7, 3, 7, 3]","[4, 8, 6, 8, 2, 7]",11.5,,74.0,Green to Orange,Blue to Pink,,,,,1775.100000023842,,,,o2ql6etsj,experiment_VB,,406482,36.0,blocks-exp,
426,838,68,25.0,19.0,,1.0,"[7, 5, 6, 2, 1, 4]","[4, 5, 1, 3, 1, 5]",11.5,,70.0,Green to Orange,Blue to Pink,,,,,1881.800000011921,,,,o2ql6etsj,experiment_VB,,409368,37.0,blocks-exp,
427,839,69,30.0,26.0,,1.0,"[7, 2, 8, 7, 2, 4]","[8, 6, 2, 3, 6, 1]",11.5,,70.0,Green to Orange,Blue to Pink,,,,,1279.300000011921,,,,o2ql6etsj,experiment_VB,,411653,38.0,blocks-exp,
428,840,70,35.0,29.0,,1.0,"[4, 5, 4, 7, 8, 7]","[8, 1, 2, 8, 7, 3]",11.5,,70.0,Green to Orange,Blue to Pink,,,,,1571.899999976158,,,,o2ql6etsj,experiment_VB,,414229,39.0,blocks-exp,
429,841,71,32.0,29.0,,0.0,"[7, 2, 7, 7, 5, 4]","[7, 2, 1, 8, 8, 3]",11.5,,74.0,Green to Orange,Blue to Pink,,,,,4593.899999976158,,,,o2ql6etsj,experiment_VB,,419827,40.0,blocks-exp,
430,842,72,28.0,18.0,,1.0,"[2, 5, 2, 3, 8, 8]","[3, 1, 5, 2, 1, 6]",11.5,,70.0,Green to Orange,Blue to Pink,,,,,1258.0,,,,o2ql6etsj,experiment_VB,,422089,41.0,blocks-exp,
431,843,73,29.0,29.0,,0.0,"[1, 6, 7, 7, 4, 4]","[1, 7, 3, 6, 4, 8]",11.5,,74.0,Green to Orange,Blue to Pink,,,,,4046.0,,,,o2ql6etsj,experiment_VB,,427138,42.0,blocks-exp,
432,844,74,36.0,29.0,,1.0,"[6, 3, 6, 8, 5, 8]","[5, 3, 7, 3, 8, 3]",11.5,,70.0,Green to Orange,Blue to Pink,,,,,3081.300000011921,,,,o2ql6etsj,experiment_VB,,431223,43.0,blocks-exp,
433,845,75,26.0,22.0,,1.0,"[6, 4, 5, 5, 4, 2]","[5, 1, 8, 1, 1, 6]",11.5,,70.0,Green to Orange,Blue to Pink,,,,,2057.0,,,,o2ql6etsj,experiment_VB,,434284,44.0,blocks-exp,
434,846,76,25.0,29.0,,1.0,"[6, 2, 1, 3, 5, 8]","[7, 6, 5, 6, 1, 4]",11.5,,74.0,Green to Orange,Blue to Pink,,,,,1247.4000000357628,,,,o2ql6etsj,experiment_VB,,436556,45.0,blocks-exp,
435,847,77,22.0,31.0,,1.0,"[7, 3, 3, 2, 3, 4]","[2, 4, 7, 5, 5, 8]",11.5,,74.0,Green to Orange,Blue to Pink,,,,,1265.100000023842,,,,o2ql6etsj,experiment_VB,,438825,46.0,blocks-exp,
436,848,78,25.0,28.0,,1.0,"[7, 1, 3, 7, 1, 6]","[6, 2, 8, 2, 7, 3]",11.5,,74.0,Green to Orange,Blue to Pink,,,,,4216.100000023842,,,,o2ql6etsj,experiment_VB,,444046,47.0,blocks-exp,
437,849,79,31.0,20.0,,1.0,"[3, 4, 7, 2, 7, 8]","[3, 3, 3, 6, 4, 1]",11.5,,70.0,Green to Orange,Blue to Pink,,,,,2337.699999988079,,,,o2ql6etsj,experiment_VB,,447387,48.0,blocks-exp,
438,850,80,27.0,19.0,,1.0,"[7, 2, 2, 5, 7, 4]","[4, 2, 3, 6, 3, 1]",11.5,,70.0,Green to Orange,Blue to Pink,,,,,1213.0,,,,o2ql6etsj,experiment_VB,,449609,49.0,blocks-exp,
439,851,81,25.0,18.0,,1.0,"[7, 1, 5, 2, 5, 5]","[7, 2, 5, 1, 1, 2]",11.5,,70.0,Green to Orange,Blue to Pink,,,,,2207.399999976158,,,,o2ql6etsj,experiment_VB,,452821,50.0,blocks-exp,
440,852,82,32.0,29.0,,1.0,"[6, 8, 1, 8, 5, 4]","[1, 7, 8, 8, 3, 2]",11.5,,70.0,Green to Orange,Blue to Pink,,,,,3461.199999988079,,,,o2ql6etsj,experiment_VB,,457286,51.0,blocks-exp,
441,853,83,36.0,23.0,,1.0,"[2, 8, 7, 8, 4, 7]","[2, 5, 3, 4, 7, 2]",11.5,,70.0,Green to Orange,Blue to Pink,,,,,758.1999999880791,,,,o2ql6etsj,experiment_VB,,459048,52.0,blocks-exp,
442,854,84,14.0,28.0,,1.0,"[3, 1, 2, 5, 2, 1]","[7, 1, 7, 4, 7, 2]",11.5,,74.0,Green to Orange,Blue to Pink,,,,,642.5,,,,o2ql6etsj,experiment_VB,,460694,53.0,blocks-exp,
443,855,85,32.0,28.0,,1.0,"[6, 2, 8, 5, 6, 5]","[4, 8, 3, 3, 4, 6]",11.5,,70.0,Green to Orange,Blue to Pink,,,,,1011.0,,,,o2ql6etsj,experiment_VB,,462708,54.0,blocks-exp,
444,856,86,23.0,27.0,,1.0,"[1, 4, 8, 5, 1, 4]","[7, 5, 6, 4, 2, 3]",11.5,,74.0,Green to Orange,Blue to Pink,,,,,6470.400000035763,,,,o2ql6etsj,experiment_VB,,470183,55.0,blocks-exp,
445,857,87,18.0,20.0,,1.0,"[2, 4, 1, 3, 2, 6]","[1, 2, 2, 1, 6, 8]",11.5,,74.0,Green to Orange,Blue to Pink,,,,,3776.0,,,,o2ql6etsj,experiment_VB,,474964,56.0,blocks-exp,
446,858,88,17.0,26.0,,1.0,"[3, 7, 1, 3, 1, 2]","[4, 8, 1, 6, 6, 1]",11.5,,74.0,Green to Orange,Blue to Pink,,,,,904.0,,,,o2ql6etsj,experiment_VB,,476872,57.0,blocks-exp,
447,859,89,29.0,24.0,,1.0,"[3, 4, 8, 5, 2, 7]","[5, 3, 2, 3, 7, 4]",11.5,,70.0,Green to Orange,Blue to Pink,,,,,1000.8000000119208,,,,o2ql6etsj,experiment_VB,,478876,58.0,blocks-exp,
448,860,90,29.0,33.0,,1.0,"[6, 5, 2, 4, 4, 8]","[7, 6, 7, 5, 5, 3]",11.5,,74.0,Green to Orange,Blue to Pink,,,,,858.6999999880791,,,,o2ql6etsj,experiment_VB,,480745,59.0,blocks-exp,
449,861,91,30.0,25.0,,1.0,"[2, 5, 8, 3, 8, 4]","[2, 5, 2, 8, 5, 3]",11.5,,70.0,Green to Orange,Blue to Pink,,,,,1921.899999976158,,,,o2ql6etsj,experiment_VB,,483672,60.0,blocks-exp,
450,862,92,33.0,28.0,,1.0,"[5, 6, 7, 5, 6, 4]","[4, 3, 2, 8, 4, 7]",11.5,,70.0,Green to Orange,Blue to Pink,,,,,1401.7999999523165,,,,o2ql6etsj,experiment_VB,,486078,61.0,blocks-exp,
451,863,93,29.0,32.0,,1.0,"[7, 6, 3, 4, 3, 6]","[8, 8, 7, 1, 3, 5]",11.5,,74.0,Green to Orange,Blue to Pink,,,,,1115.100000023842,,,,o2ql6etsj,experiment_VB,,488198,62.0,blocks-exp,
452,864,94,18.0,23.0,,1.0,"[3, 1, 7, 1, 1, 5]","[6, 7, 1, 4, 4, 1]",11.5,,74.0,Green to Orange,Blue to Pink,,,,,1286.199999988079,,,,o2ql6etsj,experiment_VB,,490488,63.0,blocks-exp,
453,865,95,25.0,38.0,,1.0,"[3, 7, 7, 3, 3, 2]","[6, 8, 3, 7, 8, 6]",11.5,,74.0,Green to Orange,Blue to Pink,,,,,710.6999999880791,,,,o2ql6etsj,experiment_VB,,492203,64.0,blocks-exp,
454,866,96,26.0,32.0,,1.0,"[2, 1, 6, 3, 6, 8]","[4, 5, 6, 7, 8, 2]",11.5,,74.0,Green to Orange,Blue to Pink,,,,,975.600000023842,,,,o2ql6etsj,experiment_VB,,494183,65.0,blocks-exp,
455,867,97,22.0,15.0,,1.0,"[1, 3, 6, 2, 3, 7]","[3, 2, 3, 1, 1, 5]",11.5,,70.0,Green to Orange,Blue to Pink,,,,,925.1999999880792,,,,o2ql6etsj,experiment_VB,,496111,66.0,blocks-exp,
456,868,98,28.0,26.0,,1.0,"[6, 8, 2, 7, 1, 4]","[6, 3, 3, 1, 8, 5]",11.5,,70.0,Green to Orange,Blue to Pink,,,,,1086.199999988079,,,,o2ql6etsj,experiment_VB,,498201,67.0,blocks-exp,
457,869,99,35.0,31.0,,1.0,"[8, 7, 2, 7, 3, 8]","[8, 3, 1, 4, 8, 7]",11.5,,70.0,Green to Orange,Blue to Pink,,,,,1469.699999988079,,,,o2ql6etsj,experiment_VB,,500674,68.0,blocks-exp,
458,870,100,19.0,18.0,,0.0,"[2, 1, 4, 4, 1, 7]","[2, 6, 1, 1, 7, 1]",11.5,,74.0,Green to Orange,Blue to Pink,,,,,1136.899999976158,,,,o2ql6etsj,experiment_VB,,502816,69.0,blocks-exp,
459,871,101,31.0,20.0,,1.0,"[6, 4, 6, 3, 4, 8]","[1, 8, 1, 4, 4, 2]",11.5,,70.0,Green to Orange,Blue to Pink,,,,,1651.5,,,,o2ql6etsj,experiment_VB,,505472,70.0,blocks-exp,
460,872,102,31.0,34.0,,1.0,"[8, 2, 8, 4, 3, 6]","[2, 8, 8, 7, 8, 1]",11.5,,74.0,Green to Orange,Blue to Pink,,,,,703.3000000119209,,,,o2ql6etsj,experiment_VB,,507181,71.0,blocks-exp,
461,873,103,30.0,29.0,,1.0,"[3, 5, 1, 7, 6, 8]","[3, 2, 6, 8, 8, 2]",11.5,,70.0,Green to Orange,Blue to Pink,,,,,1198.399999976158,,,,o2ql6etsj,experiment_VB,,509388,72.0,blocks-exp,
462,874,104,21.0,32.0,,1.0,"[4, 1, 1, 8, 2, 5]","[2, 3, 7, 6, 8, 6]",11.5,,74.0,Green to Orange,Blue to Pink,,,,,792.8999999761581,,,,o2ql6etsj,experiment_VB,,511186,73.0,blocks-exp,
463,875,105,27.0,26.0,,1.0,"[6, 1, 4, 8, 2, 6]","[3, 3, 2, 8, 3, 7]",11.5,,70.0,Green to Orange,Blue to Pink,,,,,1909.199999988079,,,,o2ql6etsj,experiment_VB,,514099,74.0,blocks-exp,
464,876,106,35.0,24.0,,1.0,"[8, 5, 8, 8, 3, 3]","[5, 8, 2, 1, 3, 5]",11.5,,70.0,Green to Orange,Blue to Pink,,,,,769.8000000119209,,,,o2ql6etsj,experiment_VB,,515874,75.0,blocks-exp,
465,877,107,15.0,22.0,,1.0,"[7, 1, 3, 1, 1, 2]","[6, 2, 1, 4, 1, 8]",11.5,,74.0,Green to Orange,Blue to Pink,,,,,1720.0,,,,o2ql6etsj,experiment_VB,,518598,76.0,blocks-exp,
466,878,108,26.0,26.0,,0.0,"[6, 1, 2, 8, 8, 1]","[8, 4, 3, 4, 2, 5]",11.5,,70.0,Green to Orange,Blue to Pink,,,,,680.0,,,,o2ql6etsj,experiment_VB,,520282,77.0,blocks-exp,
467,879,109,23.0,14.0,,1.0,"[8, 1, 1, 8, 4, 1]","[1, 1, 2, 1, 6, 3]",11.5,,70.0,Green to Orange,Blue to Pink,,,,,812.8000000119209,,,,o2ql6etsj,experiment_VB,,522099,78.0,blocks-exp,
468,880,110,28.0,25.0,,1.0,"[4, 8, 2, 2, 7, 5]","[6, 3, 2, 2, 6, 6]",11.5,,70.0,Green to Orange,Blue to Pink,,,,,1936.899999976158,,,,o2ql6etsj,experiment_VB,,525039,79.0,blocks-exp,
469,881,111,27.0,28.0,,1.0,"[7, 1, 8, 1, 4, 6]","[8, 3, 2, 8, 2, 5]",11.5,,74.0,Green to Orange,Blue to Pink,,,,,1570.0999999642372,,,,o2ql6etsj,experiment_VB,,527613,80.0,blocks-exp,
470,882,112,17.0,30.0,,1.0,"[4, 1, 5, 1, 2, 4]","[7, 2, 6, 4, 5, 6]",11.5,,74.0,Green to Orange,Blue to Pink,,,,,950.1999999880792,,,,o2ql6etsj,experiment_VB,,529568,81.0,blocks-exp,
471,883,113,34.0,21.0,,1.0,"[4, 6, 8, 8, 4, 4]","[3, 5, 3, 6, 2, 2]",11.5,,70.0,Green to Orange,Blue to Pink,,,,,736.6000000238419,,,,o2ql6etsj,experiment_VB,,531309,82.0,blocks-exp,
472,884,114,20.0,18.0,,0.0,"[4, 5, 4, 3, 2, 2]","[3, 1, 8, 3, 1, 2]",11.5,,74.0,Green to Orange,Blue to Pink,,,,,714.1000000238419,,,,o2ql6etsj,experiment_VB,,533032,83.0,blocks-exp,
473,885,115,24.0,30.0,,1.0,"[3, 2, 7, 1, 6, 5]","[4, 8, 4, 4, 6, 4]",11.5,,74.0,Green to Orange,Blue to Pink,,,,,3658.300000011921,,,,o2ql6etsj,experiment_VB,,537695,84.0,blocks-exp,
474,886,116,23.0,20.0,,1.0,"[4, 2, 1, 1, 8, 7]","[2, 4, 2, 4, 6, 2]",11.5,,70.0,Green to Orange,Blue to Pink,,,,,868.8999999761581,,,,o2ql6etsj,experiment_VB,,539569,85.0,blocks-exp,
475,887,117,35.0,24.0,,1.0,"[8, 5, 3, 3, 8, 8]","[3, 3, 5, 2, 7, 4]",11.5,,70.0,Green to Orange,Blue to Pink,,,,,990.100000023842,,,,o2ql6etsj,experiment_VB,,541563,86.0,blocks-exp,
476,888,118,29.0,33.0,,1.0,"[6, 7, 1, 5, 4, 6]","[7, 6, 3, 8, 6, 3]",11.5,,74.0,Green to Orange,Blue to Pink,,,,,834.7999999523163,,,,o2ql6etsj,experiment_VB,,543403,87.0,blocks-exp,
477,889,119,25.0,22.0,,1.0,"[5, 8, 3, 1, 6, 2]","[4, 3, 5, 2, 6, 2]",11.5,,70.0,Green to Orange,Blue to Pink,,,,,2141.600000023842,,,,o2ql6etsj,experiment_VB,,546548,88.0,blocks-exp,
478,890,120,24.0,34.0,,1.0,"[4, 5, 2, 1, 6, 6]","[8, 6, 6, 2, 6, 6]",11.5,,74.0,Green to Orange,Blue to Pink,,,,,699.1000000238419,,,,o2ql6etsj,experiment_VB,,548252,89.0,blocks-exp,
479,891,121,27.0,32.0,,1.0,"[2, 8, 7, 3, 3, 4]","[8, 2, 3, 3, 8, 8]",11.5,,74.0,Green to Orange,Blue to Pink,,,,,1446.5,,,,o2ql6etsj,experiment_VB,,550703,90.0,blocks-exp,
480,892,122,20.0,26.0,,1.0,"[3, 3, 1, 6, 1, 6]","[1, 8, 4, 6, 1, 6]",11.5,,74.0,Green to Orange,Blue to Pink,,,,,1089.800000011921,,,,o2ql6etsj,experiment_VB,,552797,91.0,blocks-exp,
481,893,123,26.0,30.0,,1.0,"[4, 6, 2, 4, 3, 7]","[6, 5, 7, 4, 1, 7]",11.5,,74.0,Green to Orange,Blue to Pink,,,,,1211.9000000357628,,,,o2ql6etsj,experiment_VB,,555013,92.0,blocks-exp,
482,894,124,25.0,30.0,,1.0,"[3, 6, 2, 8, 3, 3]","[6, 6, 8, 1, 6, 3]",11.5,,74.0,Green to Orange,Blue to Pink,,,,,790.1999999880791,,,,o2ql6etsj,experiment_VB,,556808,93.0,blocks-exp,
483,895,125,37.0,20.0,,1.0,"[7, 7, 1, 7, 7, 8]","[3, 8, 1, 3, 2, 3]",11.5,,70.0,Green to Orange,Blue to Pink,,,,,556.4000000357628,,,,o2ql6etsj,experiment_VB,,558369,94.0,blocks-exp,
484,896,126,20.0,25.0,,0.0,"[1, 1, 5, 6, 5, 2]","[1, 4, 3, 4, 8, 5]",11.5,,70.0,Green to Orange,Blue to Pink,,,,,1757.699999988079,,,,o2ql6etsj,experiment_VB,,561135,95.0,blocks-exp,
485,897,127,28.0,25.0,,1.0,"[6, 5, 5, 1, 8, 3]","[3, 3, 4, 4, 7, 4]",11.5,,70.0,Green to Orange,Blue to Pink,,,,,790.8000000119209,,,,o2ql6etsj,experiment_VB,,562930,96.0,blocks-exp,
486,898,128,18.0,32.0,,1.0,"[5, 4, 2, 2, 1, 4]","[6, 7, 6, 1, 4, 8]",11.5,,74.0,Green to Orange,Blue to Pink,,,,,593.3000000119209,,,,o2ql6etsj,experiment_VB,,564527,97.0,blocks-exp,
487,899,129,18.0,23.0,,1.0,"[7, 3, 1, 4, 2, 1]","[3, 5, 7, 1, 3, 4]",11.5,,74.0,Green to Orange,Blue to Pink,,,,,1390.5999999642372,,,,o2ql6etsj,experiment_VB,,566922,98.0,blocks-exp,
488,900,130,27.0,21.0,,1.0,"[8, 2, 3, 5, 2, 7]","[2, 1, 1, 4, 7, 6]",11.5,,70.0,Green to Orange,Blue to Pink,,,,,3489.5,,,,o2ql6etsj,experiment_VB,,571416,99.0,blocks-exp,
489,901,131,19.0,23.0,,1.0,"[5, 1, 2, 8, 1, 2]","[8, 3, 4, 3, 4, 1]",11.5,,74.0,Green to Orange,Blue to Pink,,,,,3007.699999988079,,,,o2ql6etsj,experiment_VB,,575429,100.0,blocks-exp,
490,902,132,27.0,17.0,,1.0,"[7, 2, 4, 4, 4, 6]","[2, 3, 6, 4, 1, 1]",11.5,,70.0,Green to Orange,Blue to Pink,,,,,2268.5,,,,o2ql6etsj,experiment_VB,,578703,101.0,blocks-exp,
491,903,133,23.0,31.0,,1.0,"[1, 2, 5, 8, 6, 1]","[4, 7, 7, 4, 3, 6]",11.5,,74.0,Green to Orange,Blue to Pink,,,,,912.5,,,,o2ql6etsj,experiment_VB,,580619,102.0,blocks-exp,
492,904,134,34.0,23.0,,1.0,"[3, 7, 8, 7, 2, 7]","[1, 2, 7, 7, 4, 2]",11.5,,70.0,Green to Orange,Blue to Pink,,,,,627.9000000357628,,,,o2ql6etsj,experiment_VB,,582251,103.0,blocks-exp,
493,905,135,24.0,24.0,,1.0,"[3, 3, 2, 4, 4, 8]","[6, 1, 4, 2, 8, 3]",11.5,,74.0,Green to Orange,Blue to Pink,,,,,1032.4000000357628,,,,o2ql6etsj,experiment_VB,,584288,104.0,blocks-exp,
494,906,136,23.0,32.0,,1.0,"[8, 1, 2, 6, 4, 2]","[1, 2, 6, 8, 8, 7]",11.5,,74.0,Green to Orange,Blue to Pink,,,,,824.1000000238419,,,,o2ql6etsj,experiment_VB,,586116,105.0,blocks-exp,
495,907,137,24.0,35.0,,1.0,"[6, 2, 3, 2, 3, 8]","[6, 7, 7, 2, 5, 8]",11.5,,74.0,Green to Orange,Blue to Pink,,,,,674.8000000119209,,,,o2ql6etsj,experiment_VB,,587794,106.0,blocks-exp,
496,908,138,30.0,31.0,,0.0,"[7, 4, 3, 7, 8, 1]","[4, 7, 2, 6, 4, 8]",11.5,,70.0,Green to Orange,Blue to Pink,,,,,9406.5,,,,o2ql6etsj,experiment_VB,,598211,107.0,blocks-exp,
497,909,139,24.0,30.0,,1.0,"[6, 2, 3, 5, 7, 1]","[7, 7, 7, 5, 1, 3]",11.5,,74.0,Green to Orange,Blue to Pink,,,,,711.6999999880791,,,,o2ql6etsj,experiment_VB,,599928,108.0,blocks-exp,
498,910,140,24.0,31.0,,1.0,"[3, 4, 2, 3, 4, 8]","[4, 6, 3, 8, 3, 7]",11.5,,74.0,Green to Orange,Blue to Pink,,,,,1053.0,,,,o2ql6etsj,experiment_VB,,601986,109.0,blocks-exp,
499,911,141,34.0,30.0,,1.0,"[3, 8, 7, 4, 5, 7]","[5, 5, 4, 1, 8, 7]",11.5,,70.0,Green to Orange,Blue to Pink,,,,,3758.600000023842,,,,o2ql6etsj,experiment_VB,,606749,110.0,blocks-exp,
500,912,142,27.0,26.0,,0.0,"[3, 3, 3, 3, 7, 8]","[5, 7, 6, 1, 1, 6]",11.5,,74.0,Green to Orange,Blue to Pink,,,,,777.9000000357628,,,,o2ql6etsj,experiment_VB,,608533,111.0,blocks-exp,
501,913,143,32.0,14.0,,1.0,"[8, 3, 2, 7, 8, 4]","[4, 3, 3, 1, 1, 2]",11.5,,70.0,Green to Orange,Blue to Pink,,,,,952.5,,,,o2ql6etsj,experiment_VB,,610489,112.0,blocks-exp,
502,914,144,28.0,22.0,,1.0,"[4, 4, 3, 5, 5, 7]","[3, 3, 2, 7, 3, 4]",11.5,,70.0,Green to Orange,Blue to Pink,,,,,2642.0,,,,o2ql6etsj,experiment_VB,,614136,113.0,blocks-exp,
503,915,145,25.0,30.0,,1.0,"[4, 6, 3, 2, 2, 8]","[4, 1, 6, 6, 5, 8]",11.5,,74.0,Green to Orange,Blue to Pink,,,,,1184.0,,,,o2ql6etsj,experiment_VB,,616324,114.0,blocks-exp,
504,916,146,21.0,28.0,,1.0,"[8, 3, 2, 4, 1, 3]","[2, 4, 8, 5, 1, 8]",11.5,,74.0,Green to Orange,Blue to Pink,,,,,872.5,,,,o2ql6etsj,experiment_VB,,618201,115.0,blocks-exp,
505,917,147,21.0,29.0,,1.0,"[8, 4, 1, 2, 3, 3]","[8, 5, 3, 7, 5, 1]",11.5,,74.0,Green to Orange,Blue to Pink,,,,,740.8999999761581,,,,o2ql6etsj,experiment_VB,,619947,116.0,blocks-exp,
506,918,148,24.0,19.0,,1.0,"[2, 4, 3, 6, 5, 4]","[1, 6, 5, 4, 2, 1]",11.5,,70.0,Green to Orange,Blue to Pink,,,,,2316.899999976158,,,,o2ql6etsj,experiment_VB,,623268,117.0,blocks-exp,
507,919,149,28.0,10.0,,1.0,"[1, 1, 6, 7, 8, 5]","[1, 1, 1, 3, 3, 1]",11.5,,70.0,Green to Orange,Blue to Pink,,,,,749.0,,,,o2ql6etsj,experiment_VB,,625023,118.0,blocks-exp,
508,920,150,30.0,34.0,,0.0,"[2, 8, 7, 7, 5, 1]","[6, 8, 8, 3, 4, 5]",11.5,,70.0,Green to Orange,Blue to Pink,,,,,2273.800000011921,,,,o2ql6etsj,experiment_VB,,628306,119.0,blocks-exp,
509,921,151,31.0,25.0,,1.0,"[4, 5, 8, 5, 1, 8]","[1, 4, 8, 4, 7, 1]",11.5,,70.0,Green to Orange,Blue to Pink,,,,,2537.399999976158,,,,o2ql6etsj,experiment_VB,,631849,120.0,blocks-exp,
510,922,152,37.0,36.0,,1.0,"[3, 8, 6, 5, 8, 7]","[4, 7, 7, 2, 8, 8]",11.5,,70.0,Green to Orange,Blue to Pink,,,,,2379.800000011921,,,,o2ql6etsj,experiment_VB,,635234,121.0,blocks-exp,
511,923,153,30.0,27.0,,1.0,"[1, 5, 7, 8, 4, 5]","[4, 4, 8, 7, 2, 2]",11.5,,70.0,Green to Orange,Blue to Pink,,,,,1571.5,,,,o2ql6etsj,experiment_VB,,637808,122.0,blocks-exp,
512,924,154,19.0,29.0,,1.0,"[2, 5, 4, 2, 5, 1]","[6, 7, 3, 6, 5, 2]",11.5,,74.0,Green to Orange,Blue to Pink,,,,,3120.600000023842,,,,o2ql6etsj,experiment_VB,,641934,123.0,blocks-exp,
513,925,155,21.0,29.0,,1.0,"[4, 3, 3, 1, 7, 3]","[8, 5, 5, 4, 6, 1]",11.5,,74.0,Green to Orange,Blue to Pink,,,,,1277.5999999642372,,,,o2ql6etsj,experiment_VB,,644216,124.0,blocks-exp,
514,926,156,21.0,29.0,,1.0,"[1, 2, 6, 8, 2, 2]","[4, 8, 4, 5, 5, 3]",11.5,,74.0,Green to Orange,Blue to Pink,,,,,1009.4000000357628,,,,o2ql6etsj,experiment_VB,,646237,125.0,blocks-exp,
515,927,157,34.0,31.0,,1.0,"[7, 6, 2, 7, 6, 6]","[8, 2, 6, 5, 8, 2]",11.5,,70.0,Green to Orange,Blue to Pink,,,,,943.9000000357628,,,,o2ql6etsj,experiment_VB,,648188,126.0,blocks-exp,
516,928,158,22.0,30.0,,1.0,"[6, 4, 4, 1, 1, 6]","[3, 3, 8, 4, 4, 8]",11.5,,74.0,Green to Orange,Blue to Pink,,,,,3086.300000011921,,,,o2ql6etsj,experiment_VB,,652278,127.0,blocks-exp,
517,929,159,44.0,18.0,,1.0,"[8, 8, 7, 7, 7, 7]","[6, 1, 3, 1, 2, 5]",11.5,,70.0,Green to Orange,Blue to Pink,,,,,767.1000000238419,,,,o2ql6etsj,experiment_VB,,654051,128.0,blocks-exp,
518,930,160,22.0,30.0,,1.0,"[5, 1, 2, 4, 7, 3]","[6, 4, 1, 8, 7, 4]",11.5,,74.0,Green to Orange,Blue to Pink,,,,,613.3000000119209,,,,o2ql6etsj,experiment_VB,,655668,129.0,blocks-exp,
519,931,161,22.0,31.0,,1.0,"[3, 2, 6, 4, 5, 2]","[5, 7, 2, 8, 1, 8]",11.5,,74.0,Green to Orange,Blue to Pink,,,,,572.9000000357628,,,,o2ql6etsj,experiment_VB,,657245,130.0,blocks-exp,
520,932,162,30.0,24.0,,1.0,"[5, 1, 2, 8, 7, 7]","[1, 7, 4, 7, 3, 2]",11.5,,70.0,Green to Orange,Blue to Pink,,,,,1181.5,,,,o2ql6etsj,experiment_VB,,659437,131.0,blocks-exp,
521,933,163,21.0,19.0,,0.0,"[4, 3, 2, 4, 7, 1]","[6, 4, 2, 3, 1, 3]",11.5,,74.0,Green to Orange,Blue to Pink,,,,,1088.0,,,,o2ql6etsj,experiment_VB,,661530,132.0,blocks-exp,
522,934,164,23.0,14.0,,1.0,"[3, 3, 2, 3, 4, 8]","[1, 1, 2, 2, 4, 4]",11.5,,70.0,Green to Orange,Blue to Pink,,,,,1309.9000000357628,,,,o2ql6etsj,experiment_VB,,663847,133.0,blocks-exp,
523,935,165,30.0,26.0,,1.0,"[1, 5, 7, 3, 8, 6]","[3, 6, 7, 3, 5, 2]",11.5,,70.0,Green to Orange,Blue to Pink,,,,,1083.800000011921,,,,o2ql6etsj,experiment_VB,,665934,134.0,blocks-exp,
524,936,166,31.0,21.0,,1.0,"[8, 4, 5, 2, 5, 7]","[6, 1, 2, 7, 4, 1]",11.5,,70.0,Green to Orange,Blue to Pink,,,,,3068.400000035763,,,,o2ql6etsj,experiment_VB,,670007,135.0,blocks-exp,
525,937,167,31.0,35.0,,1.0,"[6, 1, 8, 8, 6, 2]","[6, 7, 8, 6, 3, 5]",11.5,,74.0,Green to Orange,Blue to Pink,,,,,1185.399999976158,,,,o2ql6etsj,experiment_VB,,672197,136.0,blocks-exp,
526,938,168,35.0,22.0,,1.0,"[2, 8, 6, 8, 3, 8]","[7, 1, 5, 1, 1, 7]",11.5,,70.0,Green to Orange,Blue to Pink,,,,,1331.9000000357628,,,,o2ql6etsj,experiment_VB,,674533,137.0,blocks-exp,
527,939,169,22.0,32.0,,1.0,"[7, 1, 2, 6, 3, 3]","[3, 8, 2, 6, 8, 5]",11.5,,74.0,Green to Orange,Blue to Pink,,,,,906.1999999880792,,,,o2ql6etsj,experiment_VB,,676445,138.0,blocks-exp,
528,940,170,28.0,24.0,,1.0,"[6, 3, 8, 1, 4, 6]","[5, 4, 1, 5, 8, 1]",11.5,,70.0,Green to Orange,Blue to Pink,,,,,2850.699999988079,,,,o2ql6etsj,experiment_VB,,680300,139.0,blocks-exp,
529,941,171,32.0,27.0,,1.0,"[8, 7, 2, 3, 4, 8]","[8, 6, 5, 2, 1, 5]",11.5,,70.0,Green to Orange,Blue to Pink,,,,,710.0,,,,o2ql6etsj,experiment_VB,,682014,140.0,blocks-exp,
530,942,172,25.0,26.0,,1.0,"[5, 4, 7, 4, 3, 2]","[8, 1, 6, 2, 4, 5]",11.5,,74.0,Green to Orange,Blue to Pink,,,,,5876.0,,,,o2ql6etsj,experiment_VB,,688895,141.0,blocks-exp,
531,943,173,25.0,24.0,,0.0,"[6, 4, 1, 5, 6, 3]","[2, 3, 6, 2, 7, 4]",11.5,,74.0,Green to Orange,Blue to Pink,,,,,5314.100000023842,,,,o2ql6etsj,experiment_VB,,695214,142.0,blocks-exp,
532,944,174,29.0,31.0,,1.0,"[5, 4, 3, 3, 8, 6]","[6, 7, 3, 3, 4, 8]",11.5,,74.0,Green to Orange,Blue to Pink,,,,,1410.0,,,,o2ql6etsj,experiment_VB,,697628,143.0,blocks-exp,
533,945,175,31.0,18.0,,1.0,"[2, 4, 8, 2, 7, 8]","[3, 8, 1, 1, 4, 1]",11.5,,70.0,Green to Orange,Blue to Pink,,,,,718.8999999761581,,,,o2ql6etsj,experiment_VB,,699357,144.0,blocks-exp,
534,946,176,29.0,28.0,,0.0,"[4, 4, 8, 4, 4, 5]","[8, 7, 3, 2, 1, 7]",11.5,,74.0,Green to Orange,Blue to Pink,,,,,815.3000000119209,,,,o2ql6etsj,experiment_VB,,701178,145.0,blocks-exp,
535,947,177,27.0,33.0,,1.0,"[6, 7, 2, 2, 5, 5]","[8, 5, 4, 2, 8, 6]",11.5,,74.0,Green to Orange,Blue to Pink,,,,,1332.0999999642372,,,,o2ql6etsj,experiment_VB,,703514,146.0,blocks-exp,
536,948,178,21.0,25.0,,1.0,"[2, 2, 4, 3, 2, 8]","[5, 1, 7, 2, 8, 2]",11.5,,74.0,Green to Orange,Blue to Pink,,,,,772.3999999761581,,,,o2ql6etsj,experiment_VB,,705296,147.0,blocks-exp,
537,949,179,15.0,28.0,,1.0,"[3, 3, 1, 2, 1, 5]","[3, 3, 8, 4, 4, 6]",11.5,,74.0,Green to Orange,Blue to Pink,,,,,1046.5,,,,o2ql6etsj,experiment_VB,,707347,148.0,blocks-exp,
538,950,180,29.0,30.0,,0.0,"[5, 2, 2, 8, 7, 5]","[3, 3, 8, 8, 4, 4]",11.5,,70.0,Green to Orange,Blue to Pink,,,,,1142.199999988079,,,,o2ql6etsj,experiment_VB,,709508,149.0,blocks-exp,
539,951,181,24.0,23.0,,1.0,"[1, 4, 4, 5, 2, 8]","[5, 2, 3, 6, 1, 6]",11.5,,70.0,Green to Orange,Blue to Pink,,,,,1289.199999988079,,,,o2ql6etsj,experiment_VB,,711802,150.0,blocks-exp,
540,1157,2,30.0,39.0,,1.0,"[2, 5, 7, 7, 5, 4]","[2, 8, 7, 8, 8, 6]",13.0,,74.0,Blue to Pink,Green to Orange,,,,,4544.299999952316,,,,g9aul727y,training_VB,,261176,1.0,blocks,
541,1158,3,8.0,25.0,,1.0,"[1, 1, 1, 3, 1, 1]","[1, 4, 5, 7, 7, 1]",13.0,,74.0,Blue to Pink,Green to Orange,,,,,2818.199999988079,,,,g9aul727y,training_VB,,266008,2.0,blocks,
542,1159,4,14.0,33.0,,1.0,"[2, 1, 4, 3, 2, 2]","[6, 6, 8, 4, 1, 8]",13.0,,74.0,Blue to Pink,Green to Orange,,,,,1445.300000011921,,,,g9aul727y,training_VB,,269475,3.0,blocks,
543,1160,5,28.0,34.0,,1.0,"[6, 1, 7, 4, 8, 2]","[7, 4, 7, 8, 4, 4]",13.0,,74.0,Blue to Pink,Green to Orange,,,,,3115.100000023842,,,,g9aul727y,training_VB,,274603,4.0,blocks,
544,1161,6,27.0,32.0,,1.0,"[8, 1, 6, 1, 8, 3]","[5, 8, 6, 6, 1, 6]",13.0,,74.0,Blue to Pink,Green to Orange,,,,,3882.699999988079,,,,g9aul727y,training_VB,,280495,5.0,blocks,
545,1162,7,28.0,30.0,,1.0,"[2, 6, 4, 5, 4, 7]","[4, 8, 7, 2, 4, 5]",13.0,,74.0,Blue to Pink,Green to Orange,,,,,4212.300000011921,,,,g9aul727y,training_VB,,286719,6.0,blocks,
546,1163,8,26.0,28.0,,1.0,"[8, 4, 3, 7, 3, 1]","[2, 8, 3, 7, 4, 4]",13.0,,74.0,Blue to Pink,Green to Orange,,,,,4572.800000011921,,,,g9aul727y,training_VB,,293306,7.0,blocks,
547,1164,9,28.0,18.0,,1.0,"[4, 7, 3, 4, 8, 2]","[1, 2, 4, 4, 1, 6]",13.0,,70.0,Blue to Pink,Green to Orange,,,,,2147.100000023842,,,,g9aul727y,training_VB,,297464,8.0,blocks,
548,1165,10,20.0,24.0,,1.0,"[1, 4, 4, 3, 7, 1]","[3, 2, 8, 2, 1, 8]",13.0,,74.0,Blue to Pink,Green to Orange,,,,,2190.100000023842,,,,g9aul727y,training_VB,,301664,9.0,blocks,
549,1166,11,25.0,28.0,,1.0,"[3, 7, 5, 6, 2, 2]","[6, 7, 5, 4, 4, 2]",13.0,,74.0,Blue to Pink,Green to Orange,,,,,4312.399999976158,,,,g9aul727y,training_VB,,307990,10.0,blocks,
550,1167,12,26.0,31.0,,1.0,"[4, 7, 2, 4, 3, 6]","[3, 5, 8, 7, 6, 2]",13.0,,74.0,Blue to Pink,Green to Orange,,,,,4801.699999988079,,,,g9aul727y,training_VB,,314803,11.0,blocks,
551,1168,13,27.0,24.0,,0.0,"[1, 6, 3, 6, 4, 7]","[7, 2, 8, 1, 4, 2]",13.0,,74.0,Blue to Pink,Green to Orange,,,,,2161.5,,,,g9aul727y,training_VB,,318974,12.0,blocks,
552,1169,14,23.0,17.0,,1.0,"[1, 7, 1, 3, 5, 6]","[1, 1, 6, 2, 1, 6]",13.0,,70.0,Blue to Pink,Green to Orange,,,,,1726.899999976158,,,,g9aul727y,training_VB,,322710,13.0,blocks,
553,1170,15,32.0,26.0,,1.0,"[2, 8, 8, 4, 5, 5]","[5, 4, 1, 4, 5, 7]",13.0,,70.0,Blue to Pink,Green to Orange,,,,,1462.399999976158,,,,g9aul727y,training_VB,,326210,14.0,blocks,
